"subj_idx","block","trial","task_cue","task","choice_resp","choiceRT","choice_acc","topnum","topsize","botnum","botsize","cong","task_resp","rt","response","RSI","CSI","altRep","E1","trialcumul","condition","sr","intervals"
1,1,2,"?","N","f",2772,NA,9,24,3,56,"i","j",1.02068,1,"L","S","Switch",0,2,"V",1,"SL"
1,1,3,"?","P","d",385.21,NA,8,56,4,24,"c","j",2.38833,1,"L","S","Switch",0,3,"V",1,"SL"
1,1,4,"?","N","f",4023.61,NA,3,56,8,24,"i","n",0.71982,1,"S","L","Switch",0,4,"V",1,"LS"
1,1,5,"?","N","f",3122.67,NA,7,56,4,24,"c","j",0.60375,1,"S","L","Repeat",0,5,"V",0,"LS"
1,1,6,"?","N","f",869.92,NA,9,56,2,24,"c","j",0.75313,1,"L","L","Repeat",0,6,"V",0,"LL"
1,1,7,"?","P","d",2388.38,NA,4,24,8,56,"c","n",0.41778,1,"S","L","Switch",0,7,"V",1,"LS"
1,1,8,"?","P","d",686.11,NA,3,24,8,56,"c","n",0.6366,1,"L","S","Repeat",0,8,"V",0,"SL"
1,1,9,"?","P","d",2254.78,NA,7,56,2,24,"c","j",0.68707,1,"S","L","Repeat",0,9,"V",0,"LS"
1,1,10,"?","N","f",1804.66,NA,8,24,3,56,"i","j",0.90293,1,"S","L","Switch",0,10,"V",1,"LS"
1,1,11,"?","N","f",2321.66,NA,7,24,2,56,"i","j",0.8369,1,"S","L","Repeat",0,11,"V",0,"LS"
1,1,12,"?","P","d",1888.07,NA,3,24,7,56,"c","n",0.83635,1,"S","S","Switch",0,12,"V",1,"SS"
1,1,13,"?","N","f",636.23,NA,9,24,2,56,"i","j",0.91999,1,"S","S","Switch",0,13,"V",1,"SS"
1,1,14,"?","P","d",2388.4,NA,3,56,9,24,"i","j",1.20434,1,"L","L","Switch",0,14,"V",1,"LL"
1,1,15,"?","N","f",1520.66,NA,9,56,4,24,"c","j",0.90387,1,"S","S","Switch",0,15,"V",1,"SS"
1,1,16,"?","N","f",636.29,NA,2,24,8,56,"c","n",0.46937,1,"L","L","Repeat",0,16,"V",0,"LL"
1,1,17,"?","P","d",469.49,NA,4,56,9,24,"i","j",2.27212,1,"L","S","Switch",0,17,"V",1,"SL"
1,1,18,"?","N","f",2422.1,NA,2,24,7,56,"c","n",0.9868,1,"S","S","Switch",0,18,"V",1,"SS"
1,1,19,"?","P","d",469.7,NA,8,24,3,56,"i","n",1.60477,1,"S","L","Switch",0,19,"V",1,"LS"
1,1,20,"?","N","f",35.79,NA,9,56,2,24,"c","j",1.38744,1,"L","S","Switch",0,20,"V",1,"SL"
1,1,21,"?","P","d",501.02,NA,9,24,4,56,"i","n",1.58713,1,"L","S","Switch",0,21,"V",1,"SL"
1,1,22,"?","N","f",870.02,NA,8,24,3,56,"i","j",1.03672,1,"S","L","Switch",0,22,"V",1,"LS"
1,1,23,"?","N","f",452.57,NA,4,24,9,56,"c","n",0.68659,1,"L","L","Repeat",0,23,"V",0,"LL"
1,1,24,"?","P","d",1787.66,NA,7,56,3,24,"c","j",1.11803,1,"S","S","Switch",0,24,"V",1,"SS"
1,1,25,"?","P","d",385.94,NA,2,24,7,56,"c","n",0.90321,1,"L","S","Repeat",0,25,"V",0,"SL"
1,1,26,"?","P","d",419.73,NA,9,24,4,56,"i","n",1.4373,1,"L","L","Repeat",0,26,"V",0,"LL"
1,1,27,"?","P","d",1903.92,NA,7,56,3,24,"c","j",1.93774,1,"S","S","Repeat",0,27,"V",0,"SS"
1,1,28,"?","N","f",1787.02,NA,4,24,7,56,"c","n",1.37104,1,"S","L","Switch",0,28,"V",1,"LS"
1,1,29,"?","N","f",552.98,NA,3,24,9,56,"c","n",0.56958,1,"L","L","Repeat",0,29,"V",0,"LL"
1,1,30,"?","N","f",2622.25,NA,9,56,4,24,"c","j",0.88486,1,"S","S","Repeat",0,30,"V",0,"SS"
1,1,31,"?","N","f",569.04,NA,3,56,9,24,"i","n",0.78653,1,"S","S","Repeat",0,31,"V",0,"SS"
1,1,32,"?","N","f",69.25,NA,8,56,2,24,"c","j",0.76976,1,"L","L","Repeat",0,32,"V",0,"LL"
1,1,33,"?","P","d",1820.83,NA,8,24,3,56,"i","n",1.06976,1,"S","S","Switch",0,33,"V",1,"SS"
1,1,34,"?","P","d",2772.06,NA,2,56,9,24,"i","j",1.25338,1,"L","L","Repeat",0,34,"V",0,"LL"
1,1,35,"?","P","d",3506.2,NA,7,56,3,24,"c","j",0.81788,1,"L","L","Repeat",0,35,"V",0,"LL"
1,1,36,"?","N","f",1637.35,NA,2,56,7,24,"i","n",0.7867,1,"S","S","Switch",0,36,"V",1,"SS"
1,1,37,"?","N","f",1971.16,NA,9,56,4,24,"c","j",0.68708,1,"S","L","Repeat",0,37,"V",0,"LS"
1,1,38,"?","N","f",919.91,NA,7,56,3,24,"c","j",0.61982,1,"L","S","Repeat",0,38,"V",0,"SL"
1,1,39,"?","P","d",486.23,NA,2,24,8,56,"c","n",0.56981,1,"L","S","Switch",0,39,"V",1,"SL"
1,1,40,"?","P","d",770.11,NA,4,24,7,56,"c","n",0.55366,1,"S","L","Repeat",0,40,"V",0,"LS"
1,1,41,"?","P","d",69.01,NA,3,56,8,24,"i","j",0.718,1,"L","S","Repeat",0,41,"V",0,"SL"
1,1,42,"?","P","d",318.94,NA,9,24,4,56,"i","n",0.58614,1,"L","S","Repeat",0,42,"V",0,"SL"
1,1,43,"?","P","d",836.76,NA,2,24,9,56,"c","n",0.48629,1,"S","S","Repeat",0,43,"V",0,"SS"
1,1,44,"?","P","d",252.98,NA,7,56,3,24,"c","j",0.62021,1,"L","L","Repeat",0,44,"V",0,"LL"
1,1,45,"?","N","f",402.66,NA,2,24,9,56,"c","n",0.5031,1,"S","L","Switch",0,45,"V",1,"LS"
1,1,46,"?","N","f",868.73,NA,3,24,7,56,"c","n",0.75301,1,"S","S","Repeat",0,46,"V",0,"SS"
1,1,47,"?","N","f",487.17,NA,4,56,7,24,"i","j",0.46993,0,"S","L","Repeat",0,47,"V",0,"LS"
1,1,48,"?","N","f",669.51,NA,9,56,3,24,"c","j",0.73721,1,"S","L","Repeat",1,48,"V",0,"LS"
1,1,49,"?","N","f",219.36,NA,8,56,4,24,"c","j",0.66983,1,"L","S","Repeat",0,49,"V",0,"SL"
1,1,50,"?","N","f",1687.87,NA,9,24,2,56,"i","n",0.87072,0,"S","S","Repeat",0,50,"V",0,"SS"
1,1,51,"?","P","d",1437.43,NA,4,56,9,24,"i","j",1.23777,1,"L","L","Switch",1,51,"V",1,"LL"
1,1,52,"?","P","d",419.44,NA,2,24,9,56,"c","n",1.43776,1,"L","L","Repeat",0,52,"V",0,"LL"
1,1,53,"?","P","d",402.94,NA,8,24,3,56,"i","n",0.68466,1,"L","S","Repeat",0,53,"V",0,"SL"
1,1,54,"?","P","d",2554.94,NA,7,24,4,56,"i","n",0.86957,1,"L","S","Repeat",0,54,"V",0,"SL"
1,1,55,"?","N","f",702.86,NA,2,56,7,24,"i","n",1.57115,1,"L","L","Switch",0,55,"V",1,"LL"
1,1,56,"?","N","f",502.89,NA,4,56,8,24,"i","n",1.03727,1,"S","L","Repeat",0,56,"V",0,"LS"
1,1,57,"?","N","f",1303.21,NA,8,24,3,56,"i","j",1.07075,1,"S","S","Repeat",0,57,"V",0,"SS"
1,1,58,"?","N","f",402.28,NA,4,56,8,24,"i","n",2.82241,1,"L","L","Repeat",0,58,"V",0,"LL"
1,1,59,"?","N","f",52.7,NA,8,24,2,56,"i","j",0.95168,1,"L","S","Repeat",0,59,"V",0,"SL"
1,1,60,"?","P","d",35.34,NA,4,24,8,56,"c","n",0.65318,1,"L","S","Switch",0,60,"V",1,"SL"
1,1,61,"?","P","d",2438.36,NA,3,56,9,24,"i","j",0.80393,1,"S","L","Repeat",0,61,"V",0,"LS"
1,1,62,"?","P","d",753.01,NA,7,24,2,56,"i","n",0.78673,1,"S","S","Repeat",0,62,"V",0,"SS"
1,1,63,"?","P","d",619.83,NA,4,56,9,24,"i","j",0.51961,1,"S","S","Repeat",0,63,"V",0,"SS"
1,1,64,"?","P","d",636.39,NA,2,56,8,24,"i","j",0.91997,1,"L","L","Repeat",0,64,"V",0,"LL"
1,1,65,"?","P","d",352.32,NA,9,24,4,56,"i","n",0.76982,1,"L","L","Repeat",0,65,"V",0,"LL"
1,2,2,"?","N","f",436.16,NA,4,56,8,24,"i","n",0.87021,1,"S","S","Switch",0,67,"V",1,"SS"
1,2,3,"?","N","f",769.77,NA,2,56,8,24,"i","n",0.7365,1,"S","L","Repeat",0,68,"V",0,"LS"
1,2,4,"?","N","f",636.28,NA,4,56,8,24,"i","n",0.60331,1,"L","L","Repeat",0,69,"V",0,"LL"
1,2,5,"?","P","d",2988.85,NA,3,24,9,56,"c","n",1.85443,1,"S","L","Switch",0,70,"V",1,"LS"
1,2,6,"?","P","d",69.08,NA,2,24,9,56,"c","n",0.61981,1,"L","L","Repeat",0,71,"V",0,"LL"
1,2,7,"?","P","d",1687.63,NA,7,56,3,24,"c","j",0.83681,1,"S","S","Repeat",0,72,"V",0,"SS"
1,2,8,"?","P","d",536.22,NA,7,56,2,24,"c","j",0.55306,1,"S","S","Repeat",0,73,"V",0,"SS"
1,2,9,"?","P","d",486.1,NA,3,56,7,24,"i","j",0.56971,1,"S","S","Repeat",0,74,"V",0,"SS"
1,2,10,"?","P","d",2438.34,NA,2,56,8,24,"i","j",0.70376,1,"L","L","Repeat",0,75,"V",0,"LL"
1,2,11,"?","N","f",853.49,NA,4,24,9,56,"c","n",0.55259,1,"S","S","Switch",0,76,"V",1,"SS"
1,2,12,"?","N","f",3087.04,NA,2,24,7,56,"c","n",2.10547,1,"L","L","Repeat",0,77,"V",0,"LL"
1,2,13,"?","N","f",1603.98,NA,8,56,3,24,"c","j",0.85292,1,"L","L","Repeat",0,78,"V",0,"LL"
1,2,14,"?","N","f",603.11,NA,2,56,7,24,"i","n",0.8034,1,"S","L","Repeat",0,79,"V",0,"LS"
1,2,15,"?","N","f",519.6,NA,8,24,4,56,"i","j",2.90532,1,"L","S","Repeat",0,80,"V",0,"SL"
1,2,16,"?","P","d",1187.11,NA,7,56,3,24,"c","j",2.60513,1,"L","S","Switch",0,81,"V",1,"SL"
1,2,17,"?","P","d",435.72,NA,8,24,2,56,"i","n",1.17101,1,"S","S","Repeat",0,82,"V",0,"SS"
1,2,18,"?","P","d",902.73,NA,9,56,3,24,"c","j",0.58697,1,"S","S","Repeat",0,83,"V",0,"SS"
1,2,19,"?","P","d",836.36,NA,4,24,9,56,"c","n",0.70379,1,"L","S","Repeat",0,84,"V",0,"SL"
1,2,20,"?","P","d",1353.93,NA,7,24,3,56,"i","n",0.63635,1,"S","L","Repeat",0,85,"V",0,"LS"
1,2,21,"?","N","f",552.94,NA,4,56,7,24,"i","n",0.98637,1,"L","L","Switch",0,86,"V",1,"LL"
1,2,22,"?","N","f",369.07,NA,2,24,8,56,"c","n",1.22074,1,"L","S","Repeat",0,87,"V",0,"SL"
1,2,23,"?","N","f",869.68,NA,4,24,9,56,"c","n",0.67016,1,"L","L","Repeat",0,88,"V",0,"LL"
1,2,24,"?","N","f",719.74,NA,7,24,3,56,"i","j",0.93611,1,"L","S","Repeat",0,89,"V",0,"SL"
1,2,25,"?","N","f",569.2,NA,9,56,4,24,"c","j",1.28784,1,"L","S","Repeat",0,90,"V",0,"SL"
1,2,26,"?","P","d",402.89,NA,9,56,3,24,"c","n",1.62109,0,"L","S","Switch",0,91,"V",1,"SL"
1,2,27,"?","P","d",469.64,NA,4,56,9,24,"i","j",1.2377,1,"L","L","Repeat",1,92,"V",0,"LL"
1,2,28,"?","P","d",669.59,NA,3,24,9,56,"c","n",0.7035,1,"S","S","Repeat",0,93,"V",0,"SS"
1,2,29,"?","P","d",602.37,NA,4,56,9,24,"i","j",0.60315,1,"L","S","Repeat",0,94,"V",0,"SL"
1,2,30,"?","P","d",753.52,NA,7,56,2,24,"c","j",0.71984,1,"L","L","Repeat",0,95,"V",0,"LL"
1,2,31,"?","N","f",518.86,NA,4,24,8,56,"c","n",0.6013,1,"L","L","Switch",0,96,"V",1,"LL"
1,2,32,"?","N","f",1070.02,NA,2,24,7,56,"c","n",0.90332,1,"L","S","Repeat",0,97,"V",0,"SL"
1,2,33,"?","N","f",1787.61,NA,4,56,9,24,"i","n",1.10409,1,"L","L","Repeat",0,98,"V",0,"LL"
1,2,34,"?","N","f",1234.91,NA,7,56,3,24,"c","j",2.68932,1,"L","L","Repeat",0,99,"V",0,"LL"
1,2,35,"?","P","d",1687.17,NA,4,56,9,24,"i","j",1.17021,1,"S","S","Switch",0,100,"V",1,"SS"
1,2,36,"?","P","d",3055.49,NA,7,24,2,56,"i","n",0.95381,1,"S","L","Repeat",0,101,"V",0,"LS"
1,2,37,"?","P","d",1620.79,NA,9,24,4,56,"i","n",1.20403,1,"S","S","Repeat",0,102,"V",0,"SS"
1,2,38,"?","P","d",1720.9,NA,3,24,7,56,"c","n",1.13732,1,"S","S","Repeat",0,103,"V",0,"SS"
1,2,39,"?","P","d",1504.19,NA,4,24,9,56,"c","n",0.61781,1,"S","L","Repeat",0,104,"V",0,"LS"
1,2,40,"?","N","f",2071.17,NA,7,56,3,24,"c","j",0.92022,1,"S","L","Switch",0,105,"V",1,"LS"
1,2,41,"?","N","f",1637.3,NA,9,24,2,56,"i","n",0.88693,0,"S","L","Repeat",0,106,"V",0,"LS"
1,2,42,"?","N","f",2888.96,NA,7,24,3,56,"i","n",0.70257,0,"S","L","Repeat",1,107,"V",0,"LS"
1,2,43,"?","N","f",702.9,NA,4,24,8,56,"c","n",0.88704,1,"L","S","Repeat",1,108,"V",0,"SL"
1,2,44,"?","N","f",2238.2,NA,7,24,3,56,"i","j",0.85343,1,"S","L","Repeat",0,109,"V",0,"LS"
1,2,45,"?","P","d",2421.57,NA,4,24,8,56,"c","n",1.37128,1,"S","L","Switch",0,110,"V",1,"LS"
1,2,46,"?","P","d",736.53,NA,7,24,3,56,"i","n",0.85351,1,"L","S","Repeat",0,111,"V",0,"SL"
1,2,47,"?","P","d",519.73,NA,8,56,4,24,"c","j",1.15204,1,"L","S","Repeat",0,112,"V",0,"SL"
1,2,48,"?","P","d",1753.61,NA,3,24,7,56,"c","n",0.90319,1,"S","L","Repeat",0,113,"V",0,"LS"
1,2,49,"?","P","d",1420.6,NA,7,56,4,24,"c","j",0.7364,1,"S","S","Repeat",0,114,"V",0,"SS"
1,2,50,"?","N","f",1654.32,NA,7,24,2,56,"i","j",1.67138,1,"S","L","Switch",0,115,"V",1,"LS"
1,2,51,"?","N","f",1136.66,NA,8,24,4,56,"i","j",0.87005,1,"S","S","Repeat",0,116,"V",0,"SS"
1,2,52,"?","N","f",986.97,NA,3,56,7,24,"i","n",1.73733,1,"L","S","Repeat",0,117,"V",0,"SL"
1,2,53,"?","P","d",752.5,NA,7,24,2,56,"i","n",0.98583,1,"L","S","Switch",0,118,"V",1,"SL"
1,2,54,"?","P","d",819.63,NA,8,24,3,56,"i","n",1.22073,1,"S","S","Repeat",0,119,"V",0,"SS"
1,2,55,"?","P","d",1853.78,NA,4,24,9,56,"c","n",0.9702,1,"S","S","Repeat",0,120,"V",0,"SS"
1,2,56,"?","P","d",719.65,NA,8,56,3,24,"c","j",1.05466,1,"L","L","Repeat",0,121,"V",0,"LL"
1,2,57,"?","P","d",1287.89,NA,7,56,2,24,"c","j",0.80249,1,"S","L","Repeat",0,122,"V",0,"LS"
1,2,58,"?","N","f",2021.43,NA,9,24,3,56,"i","j",1.35435,1,"S","S","Switch",0,123,"V",1,"SS"
1,2,59,"?","N","f",552.69,NA,9,24,2,56,"i","j",1.00153,1,"L","S","Repeat",0,124,"V",0,"SL"
1,2,60,"?","N","f",953.26,NA,4,56,9,24,"i","n",0.83651,1,"L","S","Repeat",0,125,"V",0,"SL"
1,2,61,"?","N","f",553.04,NA,9,24,3,56,"i","j",2.62247,1,"L","L","Repeat",0,126,"V",0,"LL"
1,2,62,"?","N","f",903.41,NA,7,24,2,56,"i","j",0.75352,1,"L","L","Repeat",0,127,"V",0,"LL"
1,2,63,"?","N","f",2588.77,NA,9,56,4,24,"c","j",1.45424,1,"S","L","Repeat",0,128,"V",0,"LS"
1,2,64,"?","P","d",452.03,NA,7,24,3,56,"i","n",0.90359,1,"L","L","Switch",0,129,"V",1,"LL"
1,2,65,"?","P","d",803.36,NA,8,56,4,24,"c","j",2.35501,1,"S","L","Repeat",0,130,"V",0,"LS"
1,3,2,"?","N","f",801.32,NA,7,24,4,56,"i","j",0.75368,1,"S","S","Repeat",0,132,"V",0,"SS"
1,3,3,"?","N","f",169.22,NA,3,24,7,56,"c","n",0.70313,1,"L","S","Repeat",0,133,"V",0,"SL"
1,3,4,"?","P","d",1187.01,NA,2,24,9,56,"c","n",0.80365,1,"S","S","Switch",0,134,"V",1,"SS"
1,3,5,"?","P","d",2154.66,NA,9,24,4,56,"i","n",1.28723,1,"L","S","Repeat",0,135,"V",0,"SL"
1,3,6,"?","P","d",669.9,NA,7,56,3,24,"c","j",0.95399,1,"S","L","Repeat",0,136,"V",0,"LS"
1,3,7,"?","P","d",502.48,NA,8,24,2,56,"i","n",1.11852,1,"L","L","Repeat",0,137,"V",0,"LL"
1,3,8,"?","N","f",969.98,NA,4,24,7,56,"c","n",1.50415,1,"L","S","Switch",0,138,"V",1,"SL"
1,3,9,"?","N","f",903.23,NA,2,56,9,24,"i","n",1.88792,1,"L","S","Repeat",0,139,"V",0,"SL"
1,3,10,"?","N","f",3055.57,NA,7,56,3,24,"c","j",2.00417,1,"S","L","Repeat",0,140,"V",0,"LS"
1,3,11,"?","P","d",2505.16,NA,4,24,8,56,"c","n",1.42114,1,"S","S","Switch",0,141,"V",1,"SS"
1,3,12,"?","N","f",469.57,NA,8,56,2,24,"c","j",1.72071,1,"L","S","Switch",0,142,"V",1,"SL"
1,3,13,"?","P","d",452.43,NA,9,24,4,56,"i","n",1.65499,1,"L","S","Switch",0,143,"V",1,"SL"
1,3,14,"?","N","f",552.84,NA,9,56,3,24,"c","j",1.12091,1,"L","S","Switch",0,144,"V",1,"SL"
1,3,15,"?","P","d",318.77,NA,2,56,9,24,"i","j",0.83704,1,"L","S","Switch",0,145,"V",1,"SL"
1,3,16,"?","N","f",2104.88,NA,3,56,8,24,"i","n",0.95308,1,"S","L","Switch",0,146,"V",1,"LS"
1,3,17,"?","P","d",1253.8,NA,2,56,8,24,"i","j",0.97058,1,"S","L","Switch",0,147,"V",1,"LS"
1,3,18,"?","N","f",402.68,NA,4,24,7,56,"c","n",1.41873,1,"L","S","Switch",0,148,"V",1,"SL"
1,3,19,"?","P","d",385.75,NA,3,24,8,56,"c","j",2.75539,0,"L","L","Switch",0,149,"V",1,"LL"
1,3,20,"?","N","f",1336.91,NA,4,24,7,56,"c","n",1.68792,1,"S","L","Switch",1,150,"V",1,"LS"
1,3,21,"?","P","d",1403.78,NA,2,56,9,24,"i","j",1.30441,1,"S","L","Switch",0,151,"V",1,"LS"
1,3,22,"?","N","f",1420.33,NA,3,56,9,24,"i","n",1.77138,1,"S","S","Switch",0,152,"V",1,"SS"
1,3,23,"?","P","d",1620.46,NA,4,24,7,56,"c","n",1.13746,1,"S","S","Switch",0,153,"V",1,"SS"
1,3,24,"?","N","f",1170.41,NA,2,24,7,56,"c","n",1.4539,1,"S","L","Switch",0,154,"V",1,"LS"
1,3,25,"?","P","d",302.88,NA,3,56,8,24,"i","j",1.38729,1,"L","S","Switch",0,155,"V",1,"SL"
1,3,26,"?","N","f",1237.2,NA,4,24,7,56,"c","n",0.80382,1,"S","L","Switch",0,156,"V",1,"LS"
1,3,27,"?","P","d",803.57,NA,9,56,2,24,"c","j",1.06807,1,"S","S","Switch",0,157,"V",1,"SS"
1,3,28,"?","N","f",836.59,NA,8,24,4,56,"i","n",0.67043,0,"L","S","Switch",0,158,"V",1,"SL"
1,3,29,"?","P","d",2621.37,NA,9,56,3,24,"c","j",3.90639,1,"S","S","Switch",1,159,"V",1,"SS"
1,3,30,"?","N","f",1787.58,NA,7,24,2,56,"i","j",1.48797,1,"S","S","Switch",0,160,"V",1,"SS"
1,3,31,"?","P","d",1404.07,NA,8,24,4,56,"i","n",2.28785,1,"S","L","Switch",0,161,"V",1,"LS"
1,3,32,"?","N","f",1520.52,NA,3,24,9,56,"c","j",1.38744,0,"L","S","Switch",0,162,"V",1,"SL"
1,3,33,"?","P","d",2555.51,NA,8,56,2,24,"c","j",0.85385,1,"S","L","Switch",1,163,"V",1,"LS"
1,3,34,"?","N","f",435.89,NA,9,56,3,24,"c","j",0.90358,1,"L","L","Switch",0,164,"V",1,"LL"
1,3,35,"?","P","d",1468.63,NA,9,24,4,56,"i","n",0.73665,1,"S","L","Switch",0,165,"V",1,"LS"
1,3,36,"?","N","f",2803.35,NA,3,56,8,24,"i","j",1.35331,0,"S","S","Switch",0,166,"V",1,"SS"
1,3,37,"?","P","d",1036.6,NA,2,56,9,24,"i","j",1.32022,1,"L","L","Switch",1,167,"V",1,"LL"
1,3,38,"?","N","f",1270.2,NA,7,56,3,24,"c","j",1.38759,1,"S","S","Switch",0,168,"V",1,"SS"
1,3,40,"?","N","f",736.68,NA,9,24,4,56,"i","j",1.78717,1,"S","S","Switch",0,170,"V",1,"SS"
1,3,41,"?","N","f",986.12,NA,9,56,2,24,"c","j",4.79116,1,"S","S","Repeat",0,171,"V",0,"SS"
1,3,42,"?","N","f",1937.83,NA,4,24,8,56,"c","n",0.48629,1,"S","L","Repeat",0,172,"V",0,"LS"
1,3,43,"?","N","f",435.18,NA,3,56,9,24,"i","n",1.40383,1,"L","L","Repeat",0,173,"V",0,"LL"
1,3,44,"?","N","f",836.82,NA,8,56,4,24,"c","j",1.03726,1,"L","S","Repeat",0,174,"V",0,"SL"
1,3,45,"?","N","f",2288.33,NA,2,56,9,24,"i","n",0.61907,1,"S","L","Repeat",0,175,"V",0,"LS"
1,3,46,"?","N","f",3106,NA,8,24,3,56,"i","j",0.98736,1,"S","S","Repeat",0,176,"V",0,"SS"
1,3,47,"?","P","d",2687.98,NA,2,24,9,56,"c","n",1.2543,1,"S","S","Switch",0,177,"V",1,"SS"
1,3,48,"?","P","d",3272.59,NA,4,56,9,24,"i","j",0.47011,1,"S","L","Repeat",0,178,"V",0,"LS"
1,3,49,"?","P","d",2271.97,NA,9,24,3,56,"i","n",1.57102,1,"S","S","Repeat",0,179,"V",0,"SS"
1,3,50,"?","P","d",2171.49,NA,8,56,2,24,"c","j",0.57022,1,"S","L","Repeat",0,180,"V",0,"LS"
1,3,51,"?","P","d",553.12,NA,4,56,9,24,"i","j",1.30314,1,"L","L","Repeat",0,181,"V",0,"LL"
1,3,52,"?","N","f",469.42,NA,7,24,3,56,"i","j",1.80504,1,"L","L","Switch",0,182,"V",1,"LL"
1,3,53,"?","N","f",1535.35,NA,7,24,4,56,"i","j",1.98848,1,"L","S","Repeat",0,183,"V",0,"SL"
1,3,54,"?","N","f",235.69,NA,8,24,2,56,"i","j",1.17076,1,"L","L","Repeat",0,184,"V",0,"LL"
1,3,55,"?","N","f",1170.37,NA,8,56,3,24,"c","j",0.80325,1,"L","L","Repeat",0,185,"V",0,"LL"
1,3,56,"?","N","f",1136.76,NA,2,56,8,24,"i","n",0.95377,1,"L","S","Repeat",0,186,"V",0,"SL"
1,3,57,"?","N","f",1036.73,NA,9,56,4,24,"c","j",0.83687,1,"L","L","Repeat",0,187,"V",0,"LL"
1,3,58,"?","P","d",185.35,NA,8,24,3,56,"i","n",0.93656,1,"L","L","Switch",0,188,"V",1,"LL"
1,3,59,"?","P","d",2088.2,NA,4,24,9,56,"c","n",0.86981,1,"L","L","Repeat",0,189,"V",0,"LL"
1,3,60,"?","P","d",1704.21,NA,2,56,8,24,"i","j",0.93734,1,"S","L","Repeat",0,190,"V",0,"LS"
1,3,61,"?","P","d",953.04,NA,8,56,3,24,"c","j",0.77001,1,"L","S","Repeat",0,191,"V",0,"SL"
1,3,62,"?","P","d",436.06,NA,2,24,8,56,"c","n",0.8534,1,"L","L","Repeat",0,192,"V",0,"LL"
1,3,63,"?","P","d",685.96,NA,4,24,8,56,"c","n",1.05402,1,"L","L","Repeat",0,193,"V",0,"LL"
1,3,64,"?","P","d",2171.32,NA,8,24,2,56,"i","n",1.03666,1,"S","S","Repeat",0,194,"V",0,"SS"
1,3,65,"?","P","d",719.92,NA,8,24,3,56,"i","n",0.8536,1,"L","L","Repeat",0,195,"V",0,"LL"
1,4,2,"?","N","f",2204.55,NA,7,24,3,56,"i","j",1.10347,1,"S","L","Repeat",0,197,"V",0,"LS"
1,4,3,"?","N","f",836.42,NA,4,24,8,56,"c","n",0.78683,1,"S","S","Repeat",0,198,"V",0,"SS"
1,4,4,"?","N","f",269.39,NA,9,56,3,24,"c","j",0.50313,1,"L","L","Repeat",0,199,"V",0,"LL"
1,4,5,"?","N","f",436.66,NA,2,56,8,24,"i","n",0.63621,1,"L","L","Repeat",0,200,"V",0,"LL"
1,4,6,"?","N","f",335.73,NA,8,24,4,56,"i","j",0.92071,1,"L","L","Repeat",0,201,"V",0,"LL"
1,4,7,"?","P","d",669.94,NA,9,56,3,24,"c","j",0.86791,1,"L","S","Switch",0,202,"V",1,"SL"
1,4,8,"?","P","d",1170.18,NA,4,56,9,24,"i","j",0.87025,1,"L","S","Repeat",0,203,"V",0,"SL"
1,4,9,"?","P","d",669.73,NA,2,56,9,24,"i","j",0.61955,1,"S","S","Repeat",0,204,"V",0,"SS"
1,4,10,"?","P","d",617.38,NA,3,24,7,56,"c","n",0.65224,1,"S","L","Repeat",0,205,"V",0,"LS"
1,4,11,"?","P","d",1086.44,NA,8,24,4,56,"i","n",0.819,1,"S","S","Repeat",0,206,"V",0,"SS"
1,4,12,"?","P","d",586.05,NA,3,24,7,56,"c","n",0.4698,1,"S","L","Repeat",0,207,"V",0,"LS"
1,4,13,"?","P","d",736.41,NA,4,24,7,56,"c","n",0.65295,1,"S","S","Repeat",0,208,"V",0,"SS"
1,4,14,"?","P","d",586.28,NA,8,24,3,56,"i","n",0.53636,1,"S","L","Repeat",0,209,"V",0,"LS"
1,4,15,"?","N","f",820.11,NA,2,56,7,24,"i","n",1.22036,1,"S","L","Switch",0,210,"V",1,"LS"
1,4,16,"?","N","f",436,NA,4,56,8,24,"i","n",2.47143,1,"L","S","Repeat",0,211,"V",0,"SL"
1,4,17,"?","N","f",1219.67,NA,3,24,7,56,"c","n",0.60257,1,"L","L","Repeat",0,212,"V",0,"LL"
1,4,18,"?","N","f",970,NA,8,56,4,24,"c","j",0.85295,1,"L","S","Repeat",0,213,"V",0,"SL"
1,4,19,"?","N","f",870.15,NA,2,56,8,24,"i","n",0.7201,1,"S","L","Repeat",0,214,"V",0,"LS"
1,4,20,"?","P","d",202.54,NA,3,56,9,24,"i","j",0.71995,1,"L","L","Switch",0,215,"V",1,"LL"
1,4,21,"?","P","d",552.49,NA,2,24,9,56,"c","n",1.35409,1,"L","S","Repeat",0,216,"V",0,"SL"
1,4,22,"?","P","d",636.48,NA,7,56,3,24,"c","j",0.73708,1,"S","S","Repeat",0,217,"V",0,"SS"
1,4,23,"?","P","d",469.6,NA,4,56,8,24,"i","j",0.61951,1,"S","L","Repeat",0,218,"V",0,"LS"
1,4,24,"?","P","d",586.17,NA,7,56,3,24,"c","j",0.66926,1,"L","S","Repeat",0,219,"V",0,"SL"
1,4,25,"?","P","d",369.2,NA,2,56,7,24,"i","j",0.61917,1,"L","S","Repeat",0,220,"V",0,"SL"
1,4,26,"?","P","d",1403.48,NA,9,24,4,56,"i","n",1.62045,1,"L","L","Repeat",0,221,"V",0,"LL"
1,4,27,"?","P","d",786.5,NA,7,24,2,56,"i","n",0.68644,1,"S","S","Repeat",0,222,"V",0,"SS"
1,4,28,"?","P","d",819.47,NA,7,56,4,24,"c","j",0.70341,1,"S","L","Repeat",0,223,"V",0,"LS"
1,4,29,"?","N","f",786.62,NA,3,24,8,56,"c","n",1.03684,1,"S","L","Switch",0,224,"V",1,"LS"
1,4,30,"?","N","f",669.58,NA,7,56,2,24,"c","j",1.02071,1,"L","S","Repeat",0,225,"V",0,"SL"
1,4,31,"?","N","f",319.04,NA,4,24,8,56,"c","n",2.68866,1,"L","L","Repeat",0,226,"V",0,"LL"
1,4,32,"?","N","f",1203.77,NA,7,24,3,56,"i","j",0.72027,1,"S","L","Repeat",0,227,"V",0,"LS"
1,4,33,"?","N","f",552.82,NA,9,56,2,24,"c","j",0.82055,1,"S","L","Repeat",0,228,"V",0,"LS"
1,4,34,"?","N","f",369.18,NA,7,24,3,56,"i","j",0.87015,1,"L","S","Repeat",0,229,"V",0,"SL"
1,4,35,"?","P","d",251.9,NA,9,56,4,24,"c","j",0.9037,1,"L","L","Switch",0,230,"V",1,"LL"
1,4,36,"?","P","d",736.46,NA,7,24,3,56,"i","n",0.76992,1,"S","L","Repeat",0,231,"V",0,"LS"
1,4,37,"?","P","d",619.61,NA,4,56,9,24,"i","j",0.65363,1,"S","S","Repeat",0,232,"V",0,"SS"
1,4,38,"?","P","d",369.31,NA,7,24,2,56,"i","n",0.73649,1,"L","S","Repeat",0,233,"V",0,"SL"
1,4,39,"?","P","d",585.77,NA,3,56,8,24,"i","j",0.60071,1,"S","S","Repeat",0,234,"V",0,"SS"
1,4,40,"?","N","f",636.24,NA,4,24,7,56,"c","n",2.37164,1,"L","S","Switch",0,235,"V",1,"SL"
1,4,41,"?","N","f",702.82,NA,3,56,8,24,"i","n",0.90341,1,"L","S","Repeat",0,236,"V",0,"SL"
1,4,42,"?","N","f",1287.37,NA,9,56,4,24,"c","j",0.5859,1,"S","S","Repeat",0,237,"V",0,"SS"
1,4,43,"?","N","f",369.42,NA,3,56,7,24,"i","n",1.16945,1,"L","L","Repeat",0,238,"V",0,"LL"
1,4,44,"?","N","f",2504.84,NA,9,56,2,24,"c","j",0.67027,1,"S","L","Repeat",0,239,"V",0,"LS"
1,4,45,"?","N","f",1670.31,NA,9,56,3,24,"c","j",0.6692,1,"S","S","Repeat",0,240,"V",0,"SS"
1,4,46,"?","N","f",1187.07,NA,4,24,9,56,"c","n",0.88718,1,"S","S","Repeat",0,241,"V",0,"SS"
1,4,47,"?","P","d",52.41,NA,3,24,9,56,"c","n",0.9202,1,"L","L","Switch",0,242,"V",1,"LL"
1,4,48,"?","P","d",452.79,NA,9,24,4,56,"i","n",0.7041,1,"L","L","Repeat",0,243,"V",0,"LL"
1,4,49,"?","P","d",402.81,NA,2,24,8,56,"c","n",0.71999,1,"L","S","Repeat",0,244,"V",0,"SL"
1,4,50,"?","P","d",1954.53,NA,9,56,3,24,"c","j",0.61953,1,"S","S","Repeat",0,245,"V",0,"SS"
1,4,51,"?","P","d",486.29,NA,4,56,7,24,"i","j",0.68622,1,"L","S","Repeat",0,246,"V",0,"SL"
1,4,52,"?","P","d",1921.4,NA,2,24,9,56,"c","n",0.65407,1,"S","L","Repeat",0,247,"V",0,"LS"
1,4,53,"?","N","f",1554.11,NA,4,24,8,56,"c","n",0.85303,1,"L","S","Switch",0,248,"V",1,"SL"
1,4,54,"?","N","f",536.29,NA,9,56,2,24,"c","j",0.85315,1,"L","L","Repeat",0,249,"V",0,"LL"
1,4,55,"?","N","f",2236.19,NA,8,24,4,56,"i","j",1.38711,1,"S","S","Repeat",0,250,"V",0,"SS"
1,4,56,"?","N","f",1620.53,NA,2,56,8,24,"i","n",0.86913,1,"S","S","Repeat",0,251,"V",0,"SS"
1,4,57,"?","N","f",403.28,NA,8,24,4,56,"i","j",0.75335,1,"L","L","Repeat",0,252,"V",0,"LL"
1,4,58,"?","N","f",586.42,NA,3,56,8,24,"i","n",0.78676,1,"L","S","Repeat",0,253,"V",0,"SL"
1,4,59,"?","P","d",1988.1,NA,7,24,2,56,"i","n",0.87037,1,"S","S","Switch",0,254,"V",1,"SS"
1,4,60,"?","P","d",503.14,NA,4,56,8,24,"i","j",0.65322,1,"L","L","Repeat",0,255,"V",0,"LL"
1,4,61,"?","P","d",703.46,NA,8,56,3,24,"c","j",0.67038,1,"S","L","Repeat",0,256,"V",0,"LS"
1,4,62,"?","P","d",469.19,NA,7,56,2,24,"c","j",2.57121,1,"L","L","Repeat",0,257,"V",0,"LL"
1,4,63,"?","P","d",3172.67,NA,4,56,7,24,"i","j",1.18533,1,"S","L","Repeat",0,258,"V",0,"LS"
1,4,64,"?","N","f",886.05,NA,3,24,8,56,"c","n",2.72012,1,"L","L","Switch",0,259,"V",1,"LL"
1,4,65,"?","N","f",2956.41,NA,4,24,7,56,"c","n",1.0537,1,"S","S","Repeat",0,260,"V",0,"SS"
1,5,2,"?","N","f",953.15,NA,3,24,8,56,"c","n",0.91772,1,"L","L","Repeat",0,262,"V",0,"LL"
1,5,3,"?","P","d",735.97,NA,4,56,8,24,"i","j",0.50313,1,"L","L","Switch",0,263,"V",1,"LL"
1,5,4,"?","P","d",469.5,NA,8,56,2,24,"c","j",0.93743,1,"L","L","Repeat",0,264,"V",0,"LL"
1,5,5,"?","P","d",485.4,NA,4,56,9,24,"i","j",0.71965,1,"L","S","Repeat",0,265,"V",0,"SL"
1,5,6,"?","P","d",352.48,NA,7,56,2,24,"c","j",0.61991,1,"L","L","Repeat",0,266,"V",0,"LL"
1,5,7,"?","P","d",2638.44,NA,7,56,4,24,"c","j",0.6865,1,"S","S","Repeat",0,267,"V",0,"SS"
1,5,8,"?","N","f",418.74,NA,9,24,2,56,"i","j",0.75329,1,"L","L","Switch",0,268,"V",1,"LL"
1,5,9,"?","N","f",2571.34,NA,3,56,8,24,"i","n",1.92077,1,"S","S","Repeat",0,269,"V",0,"SS"
1,5,10,"?","N","f",552.49,NA,7,24,2,56,"i","j",1.05426,1,"L","S","Repeat",0,270,"V",0,"SL"
1,5,11,"?","N","f",2937.15,NA,7,56,3,24,"c","j",0.72024,1,"S","S","Repeat",0,271,"V",0,"SS"
1,5,12,"?","P","d",1921.53,NA,8,24,4,56,"i","n",0.75343,1,"S","L","Switch",0,272,"V",1,"LS"
1,5,13,"?","P","d",552.96,NA,8,56,2,24,"c","j",1.08754,1,"L","S","Repeat",0,273,"V",0,"SL"
1,5,14,"?","P","d",669.51,NA,8,56,3,24,"c","j",0.73712,1,"S","L","Repeat",0,274,"V",0,"LS"
1,5,15,"?","P","d",735.96,NA,2,24,7,56,"c","n",0.98652,1,"L","S","Repeat",0,275,"V",0,"SL"
1,5,16,"?","P","d",1854.08,NA,7,56,3,24,"c","j",0.72026,1,"S","L","Repeat",0,276,"V",0,"LS"
1,5,17,"?","N","f",1687.28,NA,2,24,7,56,"c","n",1.60431,1,"S","S","Switch",0,277,"V",1,"SS"
1,5,18,"?","N","f",1637.58,NA,9,24,3,56,"i","j",2.13827,1,"S","L","Repeat",0,278,"V",0,"LS"
1,5,19,"?","N","f",435.8,NA,2,56,7,24,"i","n",0.86788,1,"L","S","Repeat",0,279,"V",0,"SL"
1,5,20,"?","N","f",2154.29,NA,3,24,8,56,"c","n",0.78699,1,"L","S","Repeat",0,280,"V",0,"SL"
1,5,21,"?","P","d",319.11,NA,2,56,9,24,"i","j",0.5356,1,"L","L","Switch",0,281,"V",1,"LL"
1,5,22,"?","P","d",720.18,NA,7,24,3,56,"i","n",0.8037,1,"L","L","Repeat",0,282,"V",0,"LL"
1,5,23,"?","P","d",552.84,NA,4,56,9,24,"i","j",1.60416,1,"L","L","Repeat",0,283,"V",0,"LL"
1,5,24,"?","P","d",1754.12,NA,2,24,7,56,"c","n",0.97029,1,"S","L","Repeat",0,284,"V",0,"LS"
1,5,25,"?","N","f",1287.02,NA,3,56,7,24,"i","n",1.15291,1,"S","S","Switch",0,285,"V",1,"SS"
1,5,26,"?","N","f",2305.74,NA,7,24,4,56,"i","j",0.90178,1,"S","S","Repeat",0,286,"V",0,"SS"
1,5,27,"?","N","f",770.22,NA,3,56,9,24,"i","n",0.68631,1,"S","L","Repeat",0,287,"V",0,"LS"
1,5,28,"?","N","f",3590.73,NA,9,24,4,56,"i","j",3.29008,1,"S","L","Repeat",0,288,"V",0,"LS"
1,5,29,"?","N","f",2338.14,NA,2,24,9,56,"c","n",0.63716,1,"S","L","Repeat",0,289,"V",0,"LS"
1,5,30,"?","N","f",886.9,NA,3,56,9,24,"i","n",0.85259,1,"S","S","Repeat",0,290,"V",0,"SS"
1,5,31,"?","N","f",1053.08,NA,8,56,4,24,"c","j",1.18692,1,"S","L","Repeat",0,291,"V",0,"LS"
1,5,32,"?","P","d",369.18,NA,9,24,2,56,"i","n",0.92008,1,"L","L","Switch",0,292,"V",1,"LL"
1,5,33,"?","P","d",619.74,NA,4,24,9,56,"c","n",1.23781,1,"L","L","Repeat",0,293,"V",0,"LL"
1,5,34,"?","P","d",1320.5,NA,3,56,9,24,"i","j",0.91984,1,"S","L","Repeat",0,294,"V",0,"LS"
1,5,35,"?","P","d",986.64,NA,8,56,2,24,"c","j",0.80354,1,"S","L","Repeat",0,295,"V",0,"LS"
1,5,36,"?","P","d",1119.64,NA,8,24,4,56,"i","n",0.58672,1,"S","L","Repeat",0,296,"V",0,"LS"
1,5,37,"?","P","d",653.3,NA,9,56,2,24,"c","j",0.68644,1,"L","S","Repeat",0,297,"V",0,"SL"
1,5,38,"?","N","f",386.19,NA,4,56,8,24,"i","n",3.87375,1,"L","S","Switch",0,298,"V",1,"SL"
1,5,39,"?","N","f",452.49,NA,7,56,2,24,"c","j",0.8536,1,"L","L","Repeat",0,299,"V",0,"LL"
1,5,40,"?","N","f",1820.38,NA,8,24,4,56,"i","j",0.90388,1,"S","L","Repeat",0,300,"V",0,"LS"
1,5,41,"?","N","f",836.45,NA,8,56,3,24,"c","j",0.66953,1,"S","S","Repeat",0,301,"V",0,"SS"
1,5,42,"?","N","f",1552.26,NA,9,24,4,56,"i","j",0.78667,1,"L","S","Repeat",0,302,"V",0,"SL"
1,5,43,"?","N","f",1270.39,NA,2,24,7,56,"c","n",0.68728,1,"S","L","Repeat",0,303,"V",0,"LS"
1,5,44,"?","P","d",1001.49,NA,8,56,4,24,"c","j",0.92004,1,"L","S","Switch",0,304,"V",1,"SL"
1,5,45,"?","P","d",386.4,NA,7,24,3,56,"i","n",0.6526,1,"L","S","Repeat",0,305,"V",0,"SL"
1,5,46,"?","P","d",369.4,NA,2,24,7,56,"c","n",1.20369,1,"L","S","Repeat",0,306,"V",0,"SL"
1,5,47,"?","P","d",1370.1,NA,4,56,8,24,"i","j",0.65373,1,"S","S","Repeat",0,307,"V",0,"SS"
1,5,48,"?","P","d",819.36,NA,2,24,9,56,"c","n",0.63586,1,"S","L","Repeat",0,308,"V",0,"LS"
1,5,49,"?","N","f",1118.32,NA,4,24,8,56,"c","n",0.75327,1,"S","S","Switch",0,309,"V",1,"SS"
1,5,50,"?","N","f",652.64,NA,2,24,9,56,"c","n",1.00391,1,"L","L","Repeat",0,310,"V",0,"LL"
1,5,51,"?","N","f",1871.25,NA,3,24,7,56,"c","n",0.56971,1,"S","S","Repeat",0,311,"V",0,"SS"
1,5,52,"?","P","d",386.11,NA,7,24,4,56,"i","n",0.70397,1,"L","L","Switch",0,312,"V",1,"LL"
1,5,53,"?","P","d",267.27,NA,7,24,3,56,"i","n",0.51992,1,"L","L","Repeat",0,313,"V",0,"LL"
1,5,54,"?","P","d",1470.72,NA,4,24,7,56,"c","n",0.7534,1,"S","S","Repeat",0,314,"V",0,"SS"
1,5,55,"?","P","d",1637.51,NA,3,56,7,24,"i","j",0.73664,1,"S","S","Repeat",0,315,"V",0,"SS"
1,5,56,"?","N","f",285.96,NA,4,56,7,24,"i","n",1.30341,1,"L","S","Switch",0,316,"V",1,"SL"
1,5,57,"?","N","f",1754.42,NA,7,56,3,24,"c","j",0.95205,1,"S","S","Repeat",0,317,"V",0,"SS"
1,5,58,"?","N","f",1020.32,NA,9,24,2,56,"i","j",0.80267,1,"S","S","Repeat",0,318,"V",0,"SS"
1,5,59,"?","N","f",734.59,NA,3,56,9,24,"i","n",0.60375,1,"S","L","Repeat",0,319,"V",0,"LS"
1,5,60,"?","N","f",452.43,NA,8,56,2,24,"c","j",0.93723,1,"L","S","Repeat",0,320,"V",0,"SL"
1,5,61,"?","P","d",152.41,NA,8,56,4,24,"c","j",1.1875,1,"L","L","Switch",0,321,"V",1,"LL"
1,5,62,"?","P","d",469.62,NA,2,56,9,24,"i","j",1.90505,1,"L","S","Repeat",0,322,"V",0,"SL"
1,5,63,"?","P","d",870.22,NA,4,24,7,56,"c","n",0.77033,1,"L","S","Repeat",0,323,"V",0,"SL"
1,5,64,"?","P","d",1470.3,NA,8,24,2,56,"i","n",1.0012,1,"S","S","Repeat",0,324,"V",0,"SS"
1,5,65,"?","P","d",219.25,NA,4,24,7,56,"c","n",1.08715,1,"L","L","Repeat",0,325,"V",0,"LL"
1,6,2,"?","P","d",485.94,NA,3,56,8,24,"i","j",1.00378,1,"S","S","Repeat",0,327,"V",0,"SS"
1,6,3,"?","P","d",386.19,NA,2,56,9,24,"i","j",0.55213,1,"S","L","Repeat",0,328,"V",0,"LS"
1,6,4,"?","P","d",536.37,NA,7,24,4,56,"i","n",0.65333,1,"S","S","Repeat",0,329,"V",0,"SS"
1,6,5,"?","P","d",386.09,NA,2,56,8,24,"i","j",0.70331,1,"L","L","Repeat",0,330,"V",0,"LL"
1,6,6,"?","N","f",2888.98,NA,8,56,4,24,"c","j",1.1033,1,"S","L","Switch",0,331,"V",1,"LS"
1,6,7,"?","N","f",519.75,NA,7,56,2,24,"c","j",0.5535,1,"S","S","Repeat",0,332,"V",0,"SS"
1,6,8,"?","N","f",102.39,NA,9,24,4,56,"i","j",0.91981,1,"L","L","Repeat",0,333,"V",0,"LL"
1,6,9,"?","N","f",970.14,NA,3,24,8,56,"c","n",0.70314,1,"L","S","Repeat",0,334,"V",0,"SL"
1,6,10,"?","N","f",385.62,NA,2,24,8,56,"c","n",0.50345,1,"L","L","Repeat",0,335,"V",0,"LL"
1,6,11,"?","P","d",736.59,NA,8,24,4,56,"i","n",0.72004,1,"S","L","Switch",0,336,"V",1,"LS"
1,6,12,"?","P","d",553,NA,7,56,2,24,"c","j",0.76914,1,"S","L","Repeat",0,337,"V",0,"LS"
1,6,13,"?","P","d",285.61,NA,8,24,4,56,"i","n",0.98735,1,"L","S","Repeat",0,338,"V",0,"SL"
1,6,14,"?","P","d",385.96,NA,9,56,3,24,"c","j",1.18708,1,"L","L","Repeat",0,339,"V",0,"LL"
1,6,15,"?","N","f",452.61,NA,9,24,2,56,"i","j",0.91987,1,"L","S","Switch",0,340,"V",1,"SL"
1,6,16,"?","N","f",1821.24,NA,9,24,3,56,"i","j",0.75323,1,"S","L","Repeat",0,341,"V",0,"LS"
1,6,17,"?","N","f",319.3,NA,8,56,4,24,"c","j",0.80339,1,"L","L","Repeat",0,342,"V",0,"LL"
1,6,18,"?","N","f",502.61,NA,3,24,8,56,"c","n",0.95314,1,"L","S","Repeat",0,343,"V",0,"SL"
1,6,19,"?","N","f",1503.88,NA,8,24,4,56,"i","j",1.13762,1,"S","L","Repeat",0,344,"V",0,"LS"
1,6,20,"?","P","d",1703.98,NA,8,56,2,24,"c","j",1.63793,1,"S","S","Switch",0,345,"V",1,"SS"
1,6,21,"?","P","d",352.39,NA,7,56,4,24,"c","j",1.65492,1,"L","S","Repeat",0,346,"V",0,"SL"
1,6,22,"?","P","d",3672.96,NA,7,24,3,56,"i","n",1.12051,1,"L","L","Repeat",0,347,"V",0,"LL"
1,6,23,"?","P","d",369.27,NA,4,24,7,56,"c","n",1.08701,1,"L","L","Repeat",0,348,"V",0,"LL"
1,6,24,"?","P","d",853.36,NA,8,24,2,56,"i","n",0.90328,1,"S","L","Repeat",0,349,"V",0,"LS"
1,6,25,"?","P","d",586.49,NA,4,24,8,56,"c","n",3.53992,1,"S","S","Repeat",0,350,"V",0,"SS"
1,6,26,"?","P","d",753.02,NA,2,24,9,56,"c","n",0.52032,1,"S","L","Repeat",0,351,"V",0,"LS"
1,6,27,"?","P","d",719.6,NA,7,56,3,24,"c","j",2.57274,1,"S","S","Repeat",0,352,"V",0,"SS"
1,6,28,"?","N","f",1320.3,NA,4,56,7,24,"i","n",1.78793,1,"S","L","Switch",0,353,"V",1,"LS"
1,6,29,"?","N","f",1287.14,NA,8,24,2,56,"i","j",0.72098,1,"S","S","Repeat",0,354,"V",0,"SS"
1,6,30,"?","N","f",2872.22,NA,7,24,4,56,"i","j",1.27052,1,"L","S","Repeat",0,355,"V",0,"SL"
1,6,31,"?","N","f",853.1,NA,3,56,8,24,"i","n",0.80385,1,"L","S","Repeat",0,356,"V",0,"SL"
1,6,32,"?","N","f",1136.63,NA,7,24,4,56,"i","j",0.71995,1,"S","S","Repeat",0,357,"V",0,"SS"
1,6,33,"?","N","f",603.16,NA,8,56,3,24,"c","j",0.76928,1,"L","S","Repeat",0,358,"V",0,"SL"
1,6,34,"?","N","f",436.05,NA,4,24,9,56,"c","n",0.95436,1,"L","S","Repeat",0,359,"V",0,"SL"
1,6,35,"?","N","f",1036.9,NA,8,56,3,24,"c","j",1.22088,1,"S","L","Repeat",0,360,"V",0,"LS"
1,6,36,"?","P","d",769.53,NA,8,56,4,24,"c","j",1.07059,1,"L","L","Switch",0,361,"V",1,"LL"
1,6,37,"?","P","d",1020.26,NA,9,56,2,24,"c","j",0.82026,1,"L","S","Repeat",0,362,"V",0,"SL"
1,6,38,"?","P","d",803.12,NA,7,56,3,24,"c","j",0.91918,1,"S","L","Repeat",0,363,"V",0,"LS"
1,6,39,"?","P","d",1720.95,NA,9,24,2,56,"i","n",0.8362,1,"S","L","Repeat",0,364,"V",0,"LS"
1,6,40,"?","P","d",1253.68,NA,9,24,3,56,"i","n",0.72029,1,"S","S","Repeat",0,365,"V",0,"SS"
1,6,41,"?","P","d",636.35,NA,7,24,2,56,"i","n",0.83717,1,"L","S","Repeat",0,366,"V",0,"SL"
1,6,42,"?","N","f",2604.84,NA,7,24,3,56,"i","j",0.68654,1,"S","L","Switch",0,367,"V",1,"LS"
1,6,43,"?","N","f",603.11,NA,7,24,2,56,"i","j",0.61982,1,"L","L","Repeat",0,368,"V",0,"LL"
1,6,44,"?","N","f",1420.45,NA,8,24,3,56,"i","j",0.70289,1,"S","S","Repeat",0,369,"V",0,"SS"
1,6,45,"?","N","f",2054.52,NA,2,24,7,56,"c","n",0.70379,1,"S","L","Repeat",0,370,"V",0,"LS"
1,6,46,"?","N","f",1052.91,NA,3,24,8,56,"c","n",0.87063,1,"S","S","Repeat",0,371,"V",0,"SS"
1,6,47,"?","N","f",2088.2,NA,2,56,9,24,"i","n",3.27211,1,"S","S","Repeat",0,372,"V",0,"SS"
1,6,48,"?","P","d",85.88,NA,3,56,9,24,"i","n",0.88713,0,"L","L","Switch",0,373,"V",1,"LL"
1,6,49,"?","P","d",1885.98,NA,8,56,2,24,"c","j",1.68782,1,"S","S","Repeat",1,374,"V",0,"SS"
1,6,50,"?","P","d",352.67,NA,4,24,7,56,"c","n",1.22037,1,"L","S","Repeat",0,375,"V",0,"SL"
1,6,51,"?","P","d",870.01,NA,3,24,9,56,"c","n",0.67009,1,"S","S","Repeat",0,376,"V",0,"SS"
1,6,52,"?","P","d",2.43,NA,2,56,7,24,"i","j",0.85322,1,"L","S","Repeat",0,377,"V",0,"SL"
1,6,53,"?","P","d",302.65,NA,3,24,8,56,"c","n",1.03679,1,"L","L","Repeat",0,378,"V",0,"LL"
1,6,54,"?","P","d",185.9,NA,2,24,9,56,"c","n",0.67032,1,"L","L","Repeat",0,379,"V",0,"LL"
1,6,55,"?","P","d",719.19,NA,7,24,3,56,"i","n",1.77058,1,"L","L","Repeat",0,380,"V",0,"LL"
1,6,56,"?","P","d",302.7,NA,8,56,4,24,"c","j",1.45398,1,"L","L","Repeat",0,381,"V",0,"LL"
1,6,57,"?","N","f",1870.38,NA,2,56,7,24,"i","n",1.21987,1,"L","L","Switch",0,382,"V",1,"LL"
1,6,58,"?","N","f",1170.39,NA,3,24,9,56,"c","n",0.91988,1,"S","S","Repeat",0,383,"V",0,"SS"
1,6,59,"?","N","f",819.65,NA,4,24,8,56,"c","n",0.86942,1,"S","L","Repeat",0,384,"V",0,"LS"
1,6,60,"?","N","f",786.66,NA,9,56,3,24,"c","j",0.71983,1,"L","S","Repeat",0,385,"V",0,"SL"
1,6,61,"?","N","f",919.73,NA,4,56,9,24,"i","n",1.43747,1,"L","S","Repeat",0,386,"V",0,"SL"
1,6,62,"?","N","f",1120.36,NA,2,56,9,24,"i","n",1.52103,1,"L","L","Repeat",0,387,"V",0,"LL"
1,6,63,"?","N","f",1587.37,NA,3,24,7,56,"c","n",1.15385,1,"S","L","Repeat",0,388,"V",0,"LS"
1,6,64,"?","N","f",436.16,NA,7,24,2,56,"i","j",1.20441,1,"L","S","Repeat",0,389,"V",0,"SL"
1,6,65,"?","P","d",2504.98,NA,9,24,3,56,"i","n",1.45471,1,"S","S","Switch",0,390,"V",1,"SS"
5,1,2,"?","P","d",636.4,NA,7,56,2,24,"c","j",1.97091,1,"L","L","Switch",0,2,"V",1,"LL"
5,1,3,"?","P","d",2605.06,NA,7,24,4,56,"i","n",3.73972,1,"S","L","Repeat",0,3,"V",0,"LS"
5,1,4,"?","N","f",1237.2,NA,9,24,2,56,"i","j",1.41994,1,"S","L","Switch",0,4,"V",1,"LS"
5,1,5,"?","N","f",1253.61,NA,3,56,7,24,"i","n",1.13717,1,"L","S","Repeat",0,5,"V",0,"SL"
5,1,6,"?","P","d",684.5,NA,2,24,9,56,"c","n",0.70149,1,"L","L","Switch",0,6,"V",1,"LL"
5,1,7,"?","N","f",1971.18,NA,4,24,9,56,"c","n",0.77061,1,"S","L","Switch",0,7,"V",1,"LS"
5,1,8,"?","N","f",2688.53,NA,2,56,8,24,"i","n",2.50553,1,"S","S","Repeat",0,8,"V",0,"SS"
5,1,9,"?","P","d",1337.2,NA,7,24,3,56,"i","n",0.77081,1,"S","L","Switch",0,9,"V",1,"LS"
5,1,10,"?","N","f",3205.65,NA,7,24,2,56,"i","j",1.18746,1,"L","L","Switch",0,10,"V",1,"LL"
5,1,11,"?","P","d",1053.53,NA,9,56,3,24,"c","j",1.53738,1,"L","S","Switch",0,11,"V",1,"SL"
5,1,12,"?","P","d",1287.31,NA,4,24,9,56,"c","n",1.30402,1,"S","L","Repeat",0,12,"V",0,"LS"
5,1,13,"?","P","d",2138.08,NA,9,56,3,24,"c","j",2.03847,1,"S","S","Repeat",0,13,"V",0,"SS"
5,1,14,"?","N","f",1520.54,NA,2,24,7,56,"c","n",1.15356,1,"S","L","Switch",0,14,"V",1,"LS"
5,1,15,"?","N","f",569.92,NA,3,56,9,24,"i","n",1.25196,1,"L","L","Repeat",0,15,"V",0,"LL"
5,1,16,"?","N","f",551.05,NA,9,56,4,24,"c","j",1.02022,1,"L","L","Repeat",0,16,"V",0,"LL"
5,1,17,"?","P","d",536.19,NA,2,56,9,24,"i","j",0.68639,1,"L","L","Switch",0,17,"V",1,"LL"
5,1,18,"?","N","f",1654.3,NA,3,56,8,24,"i","n",0.9704,1,"S","L","Switch",0,18,"V",1,"LS"
5,1,19,"?","P","d",519.03,NA,4,24,8,56,"c","n",2.43885,1,"L","L","Switch",0,19,"V",1,"LL"
5,1,20,"?","N","f",752.95,NA,2,56,7,24,"i","n",3.75667,1,"L","S","Switch",0,20,"V",1,"SL"
5,1,21,"?","P","d",535.85,NA,8,56,3,24,"c","j",3.23929,1,"L","L","Switch",0,21,"V",1,"LL"
5,1,22,"?","N","f",702.69,NA,4,24,7,56,"c","n",1.05312,1,"L","S","Switch",0,22,"V",1,"SL"
5,1,23,"?","N","f",1170.33,NA,8,56,3,24,"c","j",1.42094,1,"S","L","Repeat",0,23,"V",0,"LS"
5,1,24,"?","P","d",1103.73,NA,7,56,4,24,"c","j",0.68717,1,"S","L","Switch",0,24,"V",1,"LS"
5,1,25,"?","P","d",319.11,NA,2,56,7,24,"i","j",0.66979,1,"S","S","Repeat",0,25,"V",0,"SS"
5,1,26,"?","N","f",586.33,NA,4,24,8,56,"c","n",2.15533,1,"L","S","Switch",0,26,"V",1,"SL"
5,1,27,"?","P","d",1303.72,NA,9,24,3,56,"i","n",0.81987,1,"S","S","Switch",0,27,"V",1,"SS"
5,1,28,"?","P","d",1120.41,NA,9,24,4,56,"i","n",0.95342,1,"L","S","Repeat",0,28,"V",0,"SL"
5,1,29,"?","N","f",285.93,NA,8,56,2,24,"c","j",0.78671,1,"L","S","Switch",0,29,"V",1,"SL"
5,1,30,"?","N","f",1370.58,NA,8,56,4,24,"c","j",1.4876,1,"S","L","Repeat",0,30,"V",0,"LS"
5,1,31,"?","P","d",319.23,NA,9,56,2,24,"c","j",1.42114,1,"L","S","Switch",0,31,"V",1,"SL"
5,1,32,"?","N","f",302.82,NA,3,24,7,56,"c","n",3.17219,1,"L","L","Switch",0,32,"V",1,"LL"
5,1,33,"?","P","d",584.6,NA,2,56,9,24,"i","j",0.72078,1,"S","L","Switch",0,33,"V",1,"LS"
5,1,34,"?","N","f",953.23,NA,9,56,4,24,"c","j",1.10419,1,"S","S","Switch",0,34,"V",1,"SS"
5,1,35,"?","N","f",636.74,NA,7,56,2,24,"c","j",1.43791,1,"S","S","Repeat",0,35,"V",0,"SS"
5,1,36,"?","P","d",869.52,NA,9,24,3,56,"i","n",0.95083,1,"S","L","Switch",0,36,"V",1,"LS"
5,1,37,"?","P","d",667.86,NA,2,24,7,56,"c","n",1.00336,1,"S","L","Repeat",0,37,"V",0,"LS"
5,1,38,"?","P","d",536.22,NA,9,56,4,24,"c","j",1.20423,1,"L","S","Repeat",0,38,"V",0,"SL"
5,1,39,"?","N","f",335.77,NA,2,56,8,24,"i","n",0.58654,1,"L","L","Switch",0,39,"V",1,"LL"
5,1,40,"?","N","f",1535.7,NA,3,24,9,56,"c","n",0.93754,1,"S","S","Repeat",0,40,"V",0,"SS"
5,1,41,"?","N","f",486.03,NA,4,24,9,56,"c","n",0.56997,1,"L","L","Repeat",0,41,"V",0,"LL"
5,1,42,"?","P","d",1103.79,NA,8,24,3,56,"i","n",1.03669,1,"S","S","Switch",0,42,"V",1,"SS"
5,1,43,"?","N","f",119.1,NA,4,56,8,24,"i","n",0.904,1,"L","S","Switch",0,43,"V",1,"SL"
5,1,44,"?","P","d",703.55,NA,3,24,9,56,"c","n",1.27013,1,"S","S","Switch",0,44,"V",1,"SS"
5,1,45,"?","N","f",1604.13,NA,9,24,2,56,"i","j",1.28777,1,"L","L","Switch",0,45,"V",1,"LL"
5,1,46,"?","P","d",686.16,NA,4,24,9,56,"c","n",0.98635,1,"L","S","Switch",0,46,"V",1,"SL"
5,1,47,"?","N","f",769.64,NA,7,24,3,56,"i","j",1.20216,1,"L","S","Switch",0,47,"V",1,"SL"
5,1,48,"?","N","f",385.98,NA,2,56,8,24,"i","n",0.85283,1,"L","L","Repeat",0,48,"V",0,"LL"
5,1,49,"?","N","f",436.15,NA,3,24,9,56,"c","n",0.95376,1,"L","S","Repeat",0,49,"V",0,"SL"
5,1,50,"?","P","d",351.97,NA,4,56,7,24,"i","j",1.5715,1,"L","S","Switch",0,50,"V",1,"SL"
5,1,51,"?","P","d",302.32,NA,8,24,3,56,"i","n",0.70359,1,"L","L","Repeat",0,51,"V",0,"LL"
5,1,52,"?","P","d",352.45,NA,4,56,7,24,"i","j",0.73721,1,"L","S","Repeat",0,52,"V",0,"SL"
5,1,53,"?","N","f",919.94,NA,3,24,7,56,"c","n",0.95357,1,"S","S","Switch",0,53,"V",1,"SS"
5,1,54,"?","N","f",669.81,NA,9,24,4,56,"i","j",0.73721,1,"S","S","Repeat",0,54,"V",0,"SS"
5,1,55,"?","P","d",485.58,NA,2,56,7,24,"i","j",1.20351,1,"L","S","Switch",0,55,"V",1,"SL"
5,1,56,"?","N","f",836.81,NA,9,24,4,56,"i","j",1.1043,1,"S","L","Switch",0,56,"V",1,"LS"
5,1,57,"?","P","d",703.32,NA,2,56,7,24,"i","j",0.75359,1,"S","S","Switch",0,57,"V",1,"SS"
5,1,58,"?","P","d",552.82,NA,8,56,4,24,"c","j",0.55291,1,"S","S","Repeat",0,58,"V",0,"SS"
5,1,59,"?","P","d",369.68,NA,9,24,3,56,"i","n",0.85363,1,"S","S","Repeat",0,59,"V",0,"SS"
5,1,60,"?","N","f",485.8,NA,9,24,4,56,"i","j",0.63669,1,"S","L","Switch",0,60,"V",1,"LS"
5,1,61,"?","N","f",435.35,NA,9,56,3,24,"c","j",1.20422,1,"S","L","Repeat",0,61,"V",0,"LS"
5,1,62,"?","P","d",1420.48,NA,2,56,7,24,"i","j",1.03659,1,"S","S","Switch",0,62,"V",1,"SS"
5,1,63,"?","N","f",286,NA,4,24,8,56,"c","n",0.63682,1,"S","S","Switch",0,63,"V",1,"SS"
5,1,64,"?","N","f",486.39,NA,7,24,3,56,"i","j",1.28685,1,"L","L","Repeat",0,64,"V",0,"LL"
5,1,65,"?","P","d",669.87,NA,9,56,2,24,"c","j",1.15438,1,"L","L","Switch",0,65,"V",1,"LL"
5,2,2,"?","N","f",4674.24,NA,3,24,9,56,"c","n",0.76922,1,"S","L","Switch",0,67,"V",1,"LS"
5,2,3,"?","P","d",802.85,NA,9,56,4,24,"c","j",1.20427,1,"S","S","Switch",0,68,"V",1,"SS"
5,2,4,"?","P","d",835.78,NA,3,24,8,56,"c","n",2.40521,1,"L","S","Repeat",0,69,"V",0,"SL"
5,2,5,"?","N","f",602.91,NA,4,56,9,24,"i","n",2.45531,1,"S","L","Switch",0,70,"V",1,"LS"
5,2,6,"?","N","f",486.29,NA,3,24,7,56,"c","n",0.7531,1,"S","S","Repeat",0,71,"V",0,"SS"
5,2,8,"?","P","d",536.11,NA,4,56,7,24,"i","j",0.63622,1,"S","S","Repeat",0,73,"V",0,"SS"
5,2,9,"?","N","f",569.8,NA,2,56,8,24,"i","n",0.60356,1,"S","S","Switch",0,74,"V",1,"SS"
5,2,10,"?","N","f",586.19,NA,8,56,3,24,"c","j",0.62029,1,"S","L","Repeat",0,75,"V",0,"LS"
5,2,11,"?","P","d",802.57,NA,9,24,2,56,"i","n",0.63685,1,"L","L","Switch",0,76,"V",1,"LL"
5,2,12,"?","P","d",970.19,NA,3,24,8,56,"c","n",1.08714,1,"L","L","Repeat",0,77,"V",0,"LL"
5,2,13,"?","N","f",352.44,NA,9,56,4,24,"c","j",0.63705,1,"L","L","Switch",0,78,"V",1,"LL"
5,2,14,"?","P","d",367.26,NA,8,24,3,56,"i","n",1.07009,1,"L","S","Switch",0,79,"V",1,"SL"
5,2,15,"?","N","f",1070.35,NA,7,56,4,24,"c","j",0.98664,1,"S","L","Switch",0,80,"V",1,"LS"
5,2,16,"?","P","d",736.87,NA,9,56,3,24,"c","j",1.27066,1,"S","L","Switch",0,81,"V",1,"LS"
5,2,17,"?","N","f",302.76,NA,4,24,7,56,"c","n",0.93607,1,"L","L","Switch",0,82,"V",1,"LL"
5,2,18,"?","P","d",719.99,NA,7,24,2,56,"i","n",0.86833,1,"S","S","Switch",0,83,"V",1,"SS"
5,2,19,"?","N","f",1504,NA,9,24,4,56,"i","j",3.89054,1,"S","S","Switch",0,84,"V",1,"SS"
5,2,20,"?","P","d",436.23,NA,8,24,3,56,"i","n",0.93499,1,"L","S","Switch",0,85,"V",1,"SL"
5,2,21,"?","N","f",285.23,NA,4,24,9,56,"c","n",0.95405,1,"L","S","Switch",0,86,"V",1,"SL"
5,2,22,"?","P","d",319.45,NA,3,24,9,56,"c","n",0.80406,1,"L","L","Switch",0,87,"V",1,"LL"
5,2,23,"?","N","f",886.66,NA,4,56,8,24,"i","n",1.20436,1,"S","S","Switch",0,88,"V",1,"SS"
5,2,24,"?","P","d",569.78,NA,8,56,3,24,"c","j",1.65439,1,"L","L","Switch",0,89,"V",1,"LL"
5,2,25,"?","N","f",619.9,NA,4,56,9,24,"i","n",0.91954,1,"S","L","Switch",0,90,"V",1,"LS"
5,2,26,"?","N","f",1487.56,NA,9,56,2,24,"c","j",1.12124,1,"S","S","Repeat",0,91,"V",0,"SS"
5,2,27,"?","N","f",869.95,NA,4,24,8,56,"c","n",1.80413,1,"L","L","Repeat",0,92,"V",0,"LL"
5,2,28,"?","P","d",469.2,NA,2,56,9,24,"i","j",1.10129,1,"L","S","Switch",0,93,"V",1,"SL"
5,2,29,"?","P","d",870.08,NA,4,24,7,56,"c","n",1.11791,1,"S","L","Repeat",0,94,"V",0,"LS"
5,2,30,"?","N","f",953.39,NA,2,24,7,56,"c","n",1.33482,1,"S","S","Switch",0,95,"V",1,"SS"
5,2,31,"?","P","d",819.87,NA,4,56,9,24,"i","j",0.91993,1,"S","S","Switch",0,96,"V",1,"SS"
5,2,32,"?","P","d",536.44,NA,2,24,7,56,"c","n",0.80319,1,"S","S","Repeat",0,97,"V",0,"SS"
5,2,33,"?","N","f",319.14,NA,3,56,7,24,"i","n",1.67115,1,"L","L","Switch",0,98,"V",1,"LL"
5,2,34,"?","P","d",469.51,NA,8,56,4,24,"c","j",1.7381,1,"L","L","Switch",0,99,"V",1,"LL"
5,2,35,"?","N","f",335.95,NA,2,56,7,24,"i","n",0.63594,1,"L","L","Switch",0,100,"V",1,"LL"
5,2,36,"?","P","d",386.05,NA,9,24,3,56,"i","n",1.00362,1,"L","S","Switch",0,101,"V",1,"SL"
5,2,37,"?","N","f",319.16,NA,8,56,4,24,"c","j",1.30364,1,"L","L","Switch",0,102,"V",1,"LL"
5,2,38,"?","P","d",402.66,NA,8,24,2,56,"i","n",1.10337,1,"L","S","Switch",0,103,"V",1,"SL"
5,2,39,"?","N","f",686.33,NA,7,56,3,24,"c","j",0.73633,1,"S","S","Switch",0,104,"V",1,"SS"
5,2,40,"?","P","d",1470.6,NA,4,24,8,56,"c","n",1.0348,1,"S","L","Switch",0,105,"V",1,"LS"
5,2,41,"?","N","f",1003.78,NA,3,24,7,56,"c","n",0.92093,1,"S","L","Switch",0,106,"V",1,"LS"
5,2,42,"?","N","f",386.05,NA,7,24,2,56,"i","j",0.83767,1,"L","S","Repeat",0,107,"V",0,"SL"
5,2,43,"?","N","f",286.01,NA,9,24,3,56,"i","j",0.88644,1,"L","L","Repeat",0,108,"V",0,"LL"
5,2,44,"?","N","f",903.29,NA,7,24,2,56,"i","j",0.75313,1,"S","S","Repeat",0,109,"V",0,"SS"
5,2,45,"?","P","d",719.47,NA,9,56,4,24,"c","j",1.60269,1,"S","L","Switch",0,110,"V",1,"LS"
5,2,46,"?","P","d",85.36,NA,2,56,8,24,"i","j",1.13687,1,"L","L","Repeat",0,111,"V",0,"LL"
5,2,47,"?","P","d",118.42,NA,3,24,8,56,"c","n",0.70331,1,"L","S","Repeat",0,112,"V",0,"SL"
5,2,48,"?","N","f",235.61,NA,9,56,4,24,"c","j",1.28659,1,"L","S","Switch",0,113,"V",1,"SL"
5,2,49,"?","N","f",403.18,NA,3,56,9,24,"i","n",0.55324,1,"L","L","Repeat",0,114,"V",0,"LL"
5,2,50,"?","P","d",936.98,NA,2,24,7,56,"c","n",0.7524,1,"S","S","Switch",0,115,"V",1,"SS"
5,2,51,"?","P","d",352.79,NA,3,56,8,24,"i","j",1.35425,1,"L","L","Repeat",0,116,"V",0,"LL"
5,2,52,"?","N","f",1386.91,NA,2,56,7,24,"i","n",1.15147,1,"S","L","Switch",0,117,"V",1,"LS"
5,2,53,"?","P","d",369.44,NA,3,56,7,24,"i","j",3.03921,1,"L","S","Switch",0,118,"V",1,"SL"
5,2,54,"?","N","f",2388.15,NA,9,24,4,56,"i","j",1.00289,1,"L","S","Switch",0,119,"V",1,"SL"
5,2,55,"?","N","f",769.56,NA,3,56,9,24,"i","n",1.25349,1,"S","S","Repeat",0,120,"V",0,"SS"
5,2,56,"?","N","f",817.99,NA,4,56,8,24,"i","n",3.74008,1,"S","L","Repeat",0,121,"V",0,"LS"
5,2,57,"?","P","d",3539.32,NA,8,56,3,24,"c","j",2.73893,1,"S","S","Switch",0,122,"V",1,"SS"
5,2,58,"?","N","f",3505.46,NA,9,24,2,56,"i","j",1.23771,1,"S","L","Switch",0,123,"V",1,"LS"
5,2,59,"?","N","f",736.72,NA,8,24,4,56,"i","j",2.28783,1,"S","L","Repeat",0,124,"V",0,"LS"
5,2,60,"?","P","d",619.56,NA,8,56,3,24,"c","j",0.87002,1,"L","S","Switch",0,125,"V",1,"SL"
5,2,61,"?","P","d",569.75,NA,2,56,9,24,"i","j",1.087,1,"S","L","Repeat",0,126,"V",0,"LS"
5,2,62,"?","N","f",1520.08,NA,9,24,3,56,"i","j",0.73691,1,"L","L","Switch",0,127,"V",1,"LL"
5,2,63,"?","P","d",602.93,NA,4,24,8,56,"c","n",0.81973,1,"L","S","Switch",0,128,"V",1,"SL"
5,2,64,"?","P","d",669.79,NA,9,56,2,24,"c","j",0.62055,1,"L","S","Repeat",0,129,"V",0,"SL"
5,2,65,"?","P","d",419.4,NA,9,56,4,24,"c","j",0.63683,1,"L","S","Repeat",0,130,"V",0,"SL"
5,3,2,"?","N","f",686.28,NA,3,24,8,56,"c","n",0.63633,1,"S","L","Switch",0,132,"V",1,"LS"
5,3,3,"?","P","d",335.93,NA,2,56,7,24,"i","j",0.61999,1,"L","L","Switch",0,133,"V",1,"LL"
5,3,4,"?","N","f",352.16,NA,9,24,3,56,"i","j",1.80468,1,"L","S","Switch",0,134,"V",1,"SL"
5,3,5,"?","P","d",402.89,NA,8,24,4,56,"i","n",1.15403,1,"L","S","Switch",0,135,"V",1,"SL"
5,3,6,"?","N","f",784.66,NA,9,56,3,24,"c","j",0.57008,1,"S","L","Switch",0,136,"V",1,"LS"
5,3,7,"?","N","f",1001.48,NA,7,56,2,24,"c","j",2.43908,1,"S","L","Repeat",0,137,"V",0,"LS"
5,3,8,"?","N","f",386.37,NA,8,24,4,56,"i","j",1.80475,1,"L","L","Repeat",0,138,"V",0,"LL"
5,3,9,"?","P","d",1134.99,NA,3,24,9,56,"c","n",0.51956,1,"S","S","Switch",0,139,"V",1,"SS"
5,3,10,"?","P","d",352.52,NA,9,24,2,56,"i","n",0.80305,1,"L","L","Repeat",0,140,"V",0,"LL"
5,3,11,"?","P","d",653.06,NA,8,24,4,56,"i","n",0.58616,1,"S","S","Repeat",0,141,"V",0,"SS"
5,3,12,"?","N","f",2104.72,NA,9,24,3,56,"i","j",1.27024,1,"S","L","Switch",0,142,"V",1,"LS"
5,3,13,"?","N","f",285.28,NA,2,24,7,56,"c","n",1.68695,1,"L","S","Repeat",0,143,"V",0,"SL"
5,3,14,"?","P","d",336.18,NA,3,24,7,56,"c","n",0.75348,1,"L","S","Switch",0,144,"V",1,"SL"
5,3,15,"?","P","d",369.14,NA,4,24,9,56,"c","n",4.12349,1,"L","L","Repeat",0,145,"V",0,"LL"
5,3,16,"?","N","f",1871.32,NA,8,24,2,56,"i","j",1.08687,1,"S","S","Switch",0,146,"V",1,"SS"
5,3,17,"?","N","f",302.28,NA,3,56,7,24,"i","n",0.90402,1,"L","L","Repeat",0,147,"V",0,"LL"
5,3,18,"?","N","f",753.41,NA,4,24,8,56,"c","n",0.73651,1,"S","S","Repeat",0,148,"V",0,"SS"
5,3,19,"?","P","d",619.84,NA,2,24,8,56,"c","n",0.63609,1,"S","L","Switch",0,149,"V",1,"LS"
5,3,20,"?","P","d",519.76,NA,3,56,9,24,"i","j",1.07044,1,"L","S","Repeat",0,150,"V",0,"SL"
5,3,21,"?","P","d",319.48,NA,4,24,9,56,"c","n",2.70495,1,"L","L","Repeat",0,151,"V",0,"LL"
5,3,22,"?","N","f",1604,NA,3,24,9,56,"c","n",1.12088,1,"S","S","Switch",0,152,"V",1,"SS"
5,3,23,"?","P","d",435.81,NA,7,56,4,24,"c","j",0.95404,1,"S","L","Switch",0,153,"V",1,"LS"
5,3,24,"?","N","f",636.64,NA,7,24,2,56,"i","n",0.66958,0,"S","L","Switch",0,154,"V",1,"LS"
5,3,25,"?","P","d",953.47,NA,9,56,4,24,"c","j",1.08744,1,"L","S","Switch",1,155,"V",1,"SL"
5,3,26,"?","N","f",535.96,NA,7,24,3,56,"i","j",0.90337,1,"S","S","Switch",0,156,"V",1,"SS"
5,3,27,"?","P","d",185.04,NA,2,24,8,56,"c","n",1.73779,1,"L","S","Switch",0,157,"V",1,"SL"
5,3,28,"?","N","f",134.79,NA,3,24,7,56,"c","n",0.80331,1,"L","L","Switch",0,158,"V",1,"LL"
5,3,29,"?","P","d",319.24,NA,2,56,9,24,"i","j",1.20406,1,"L","S","Switch",0,159,"V",1,"SL"
5,3,30,"?","N","f",236.14,NA,4,56,9,24,"i","n",0.68696,1,"L","L","Switch",0,160,"V",1,"LL"
5,3,31,"?","P","d",570.02,NA,8,24,3,56,"i","n",1.15404,1,"L","S","Switch",0,161,"V",1,"SL"
5,3,32,"?","N","f",919.58,NA,9,24,2,56,"i","j",0.80326,1,"S","L","Switch",0,162,"V",1,"LS"
5,3,33,"?","P","d",1905.13,NA,9,24,3,56,"i","n",0.81946,1,"S","S","Switch",0,163,"V",1,"SS"
5,3,34,"?","P","d",486.4,NA,9,24,4,56,"i","n",2.40515,1,"S","S","Repeat",0,164,"V",0,"SS"
5,3,35,"?","N","f",419.31,NA,3,24,7,56,"c","n",1.95455,1,"L","S","Switch",0,165,"V",1,"SL"
5,3,36,"?","N","f",335.73,NA,4,56,9,24,"i","n",0.90335,1,"L","S","Repeat",0,166,"V",0,"SL"
5,3,37,"?","P","d",2070.98,NA,7,56,3,24,"c","j",1.05356,1,"L","L","Switch",0,167,"V",1,"LL"
5,3,38,"?","N","f",369.1,NA,9,56,2,24,"c","j",3.13901,1,"L","L","Switch",0,168,"V",1,"LL"
5,3,39,"?","P","d",319.47,NA,7,56,4,24,"c","j",0.90369,1,"L","S","Switch",0,169,"V",1,"SL"
5,3,40,"?","P","d",602.85,NA,2,56,9,24,"i","n",1.53787,0,"S","S","Repeat",0,170,"V",0,"SS"
5,3,41,"?","P","d",1821.78,NA,7,56,4,24,"c","j",3.0231,1,"S","S","Repeat",1,171,"V",0,"SS"
5,3,42,"?","N","f",419.49,NA,7,24,3,56,"i","j",1.02074,1,"L","S","Switch",0,172,"V",1,"SL"
5,3,43,"?","P","d",1070.26,NA,7,24,2,56,"i","n",1.02046,1,"S","L","Switch",0,173,"V",1,"LS"
5,3,44,"?","P","d",1652.27,NA,9,56,4,24,"c","j",1.73813,1,"S","S","Repeat",0,174,"V",0,"SS"
5,3,45,"?","N","f",1904.31,NA,7,56,2,24,"c","j",1.20424,1,"S","S","Switch",0,175,"V",1,"SS"
5,3,46,"?","N","f",419.13,NA,7,56,3,24,"c","j",0.85365,1,"L","L","Repeat",0,176,"V",0,"LL"
5,3,47,"?","P","d",1253.85,NA,7,56,4,24,"c","j",0.77049,1,"L","L","Switch",0,177,"V",1,"LL"
5,3,48,"?","N","f",736.48,NA,7,56,3,24,"c","j",0.73682,1,"L","S","Switch",0,178,"V",1,"SL"
5,3,49,"?","N","f",101.85,NA,7,56,4,24,"c","j",0.70269,1,"L","S","Repeat",0,179,"V",0,"SL"
5,3,50,"?","N","f",252.28,NA,3,24,9,56,"c","n",1.15285,1,"L","L","Repeat",0,180,"V",0,"LL"
5,3,51,"?","P","d",2404.72,NA,4,24,9,56,"c","n",1.08702,1,"S","S","Switch",0,181,"V",1,"SS"
5,3,52,"?","N","f",769.59,NA,8,56,3,24,"c","j",0.85337,1,"S","L","Switch",0,182,"V",1,"LS"
5,3,53,"?","P","d",519.57,NA,7,24,4,56,"i","n",0.83701,1,"S","S","Switch",0,183,"V",1,"SS"
5,3,54,"?","N","f",352.5,NA,9,56,2,24,"c","j",0.71782,1,"S","S","Switch",0,184,"V",1,"SS"
5,3,55,"?","P","d",870.04,NA,8,24,3,56,"i","n",1.08736,1,"L","S","Switch",0,185,"V",1,"SL"
5,3,56,"?","N","f",1202.99,NA,4,56,8,24,"i","n",0.70293,1,"S","L","Switch",0,186,"V",1,"LS"
5,3,57,"?","P","d",903.54,NA,3,56,9,24,"i","j",0.98654,1,"S","S","Switch",0,187,"V",1,"SS"
5,3,58,"?","N","f",553.22,NA,2,24,9,56,"c","n",0.8204,1,"S","L","Switch",0,188,"V",1,"LS"
5,3,59,"?","P","d",669.72,NA,4,56,9,24,"i","j",0.67025,1,"S","L","Switch",0,189,"V",1,"LS"
5,3,60,"?","N","f",653.06,NA,2,24,8,56,"c","n",0.73654,1,"S","L","Switch",0,190,"V",1,"LS"
5,3,61,"?","P","d",1737.45,NA,7,24,4,56,"i","n",1.05407,1,"S","L","Switch",0,191,"V",1,"LS"
5,3,62,"?","P","d",302.93,NA,2,56,9,24,"i","j",1.15375,1,"L","L","Repeat",0,192,"V",0,"LL"
5,3,63,"?","N","f",302.81,NA,9,24,3,56,"i","j",1.18758,1,"L","L","Switch",0,193,"V",1,"LL"
5,3,64,"?","N","f",18.38,NA,4,56,9,24,"i","n",0.65352,1,"L","L","Repeat",0,194,"V",0,"LL"
5,3,65,"?","P","d",1837.72,NA,7,24,3,56,"i","n",0.93667,1,"S","L","Switch",0,195,"V",1,"LS"
5,4,2,"?","P","d",1570.64,NA,4,56,9,24,"i","j",1.20355,1,"S","S","Switch",0,197,"V",1,"SS"
5,4,3,"?","N","f",1120.44,NA,2,24,7,56,"c","n",1.35424,1,"L","L","Switch",0,198,"V",1,"LL"
5,4,4,"?","P","d",1153.61,NA,4,24,9,56,"c","n",0.58653,1,"S","S","Switch",0,199,"V",1,"SS"
5,4,5,"?","N","f",402.99,NA,8,56,2,24,"c","j",0.68471,1,"S","L","Switch",0,200,"V",1,"LS"
5,4,6,"?","P","d",352.7,NA,4,24,7,56,"c","n",0.6029,1,"L","L","Switch",0,201,"V",1,"LL"
5,4,7,"?","N","f",484.4,NA,9,56,2,24,"c","j",0.73693,1,"L","S","Switch",0,202,"V",1,"SL"
5,4,8,"?","P","d",585.55,NA,7,24,3,56,"i","n",0.95259,1,"S","S","Switch",0,203,"V",1,"SS"
5,4,9,"?","N","f",569.82,NA,4,56,9,24,"i","n",1.03714,1,"S","S","Switch",0,204,"V",1,"SS"
5,4,10,"?","P","d",3172.51,NA,7,56,2,24,"c","j",2.62232,1,"L","L","Switch",0,205,"V",1,"LL"
5,4,11,"?","N","f",5942.12,NA,8,24,3,56,"i","j",2.03772,1,"L","S","Switch",0,206,"V",1,"SL"
5,4,12,"?","N","f",1036.72,NA,2,56,8,24,"i","n",1.07017,1,"S","L","Repeat",0,207,"V",0,"LS"
5,4,13,"?","N","f",652.99,NA,3,56,9,24,"i","n",0.75337,1,"S","S","Repeat",0,208,"V",0,"SS"
5,4,14,"?","P","d",402.19,NA,2,56,9,24,"i","j",1.08715,1,"S","L","Switch",0,209,"V",1,"LS"
5,4,15,"?","P","d",552.73,NA,7,56,4,24,"c","j",2.00486,1,"S","S","Repeat",0,210,"V",0,"SS"
5,4,16,"?","P","d",602.48,NA,9,24,2,56,"i","n",0.78716,1,"S","L","Repeat",0,211,"V",0,"LS"
5,4,17,"?","N","f",519.32,NA,4,56,9,24,"i","n",1.20349,1,"L","L","Switch",0,212,"V",1,"LL"
5,4,18,"?","N","f",319.49,NA,8,24,3,56,"i","j",1.10395,1,"L","L","Repeat",0,213,"V",0,"LL"
5,4,19,"?","P","d",820.19,NA,7,24,4,56,"i","n",0.48644,1,"S","L","Switch",0,214,"V",1,"LS"
5,4,20,"?","P","d",469.48,NA,2,56,8,24,"i","j",0.91987,1,"S","L","Repeat",0,215,"V",0,"LS"
5,4,21,"?","N","f",769.55,NA,7,56,3,24,"c","j",0.93731,1,"S","S","Switch",0,216,"V",1,"SS"
5,4,22,"?","P","d",451.06,NA,4,24,8,56,"c","n",1.68799,1,"S","S","Switch",0,217,"V",1,"SS"
5,4,23,"?","N","f",2238.19,NA,7,24,3,56,"i","j",1.07024,1,"S","S","Switch",0,218,"V",1,"SS"
5,4,24,"?","N","f",485.8,NA,7,56,4,24,"c","j",0.73632,1,"S","L","Repeat",0,219,"V",0,"LS"
5,4,25,"?","P","d",485.63,NA,3,56,9,24,"i","j",1.05423,1,"L","L","Switch",0,220,"V",1,"LL"
5,4,26,"?","P","d",333.88,NA,8,24,2,56,"i","n",0.80312,1,"L","S","Repeat",0,221,"V",0,"SL"
5,4,27,"?","N","f",635.95,NA,8,56,4,24,"c","j",1.75347,1,"S","S","Switch",0,222,"V",1,"SS"
5,4,28,"?","N","f",502.97,NA,9,24,3,56,"i","j",2.60483,1,"L","S","Repeat",0,223,"V",0,"SL"
5,4,29,"?","N","f",302.45,NA,4,24,9,56,"c","n",0.85366,1,"L","S","Repeat",0,224,"V",0,"SL"
5,4,30,"?","P","d",252.89,NA,3,56,8,24,"i","j",0.93735,1,"L","S","Switch",0,225,"V",1,"SL"
5,4,31,"?","P","d",319.29,NA,9,24,4,56,"i","n",0.50366,1,"L","S","Repeat",0,226,"V",0,"SL"
5,4,32,"?","P","d",386.24,NA,8,56,3,24,"c","j",1.28744,1,"L","S","Repeat",0,227,"V",0,"SL"
5,4,33,"?","N","f",869.91,NA,2,56,7,24,"i","n",0.83731,1,"L","S","Switch",0,228,"V",1,"SL"
5,4,34,"?","P","d",453.18,NA,9,24,3,56,"i","n",0.50399,1,"S","L","Switch",0,229,"V",1,"LS"
5,4,35,"?","N","f",285.71,NA,4,24,7,56,"c","n",0.91957,1,"L","S","Switch",0,230,"V",1,"SL"
5,4,36,"?","P","d",335.86,NA,2,24,9,56,"c","n",0.97042,1,"L","L","Switch",0,231,"V",1,"LL"
5,4,37,"?","N","f",302.32,NA,9,56,3,24,"c","j",0.66956,1,"L","L","Switch",0,232,"V",1,"LL"
5,4,38,"?","P","d",385.76,NA,2,56,7,24,"i","j",1.65409,1,"L","L","Switch",0,233,"V",1,"LL"
5,4,39,"?","N","f",619.65,NA,4,24,7,56,"c","n",0.75314,1,"S","S","Switch",0,234,"V",1,"SS"
5,4,40,"?","P","d",435.94,NA,8,24,2,56,"i","n",2.28838,1,"L","S","Switch",0,235,"V",1,"SL"
5,4,41,"?","N","f",753.22,NA,4,56,9,24,"i","n",0.73702,1,"S","S","Switch",0,236,"V",1,"SS"
5,4,42,"?","P","d",919.91,NA,2,24,7,56,"c","n",1.30171,1,"L","S","Switch",0,237,"V",1,"SL"
5,4,43,"?","N","f",1037.33,NA,4,24,7,56,"c","n",1.2539,1,"S","L","Switch",0,238,"V",1,"LS"
5,4,44,"?","P","d",1620.87,NA,3,24,9,56,"c","n",1.03511,1,"S","L","Switch",0,239,"V",1,"LS"
5,4,45,"?","N","f",302.24,NA,4,56,8,24,"i","n",0.81994,1,"L","L","Switch",0,240,"V",1,"LL"
5,4,46,"?","P","d",969.82,NA,2,56,7,24,"i","j",1.03675,1,"S","L","Switch",0,241,"V",1,"LS"
5,4,47,"?","N","f",987.08,NA,7,56,4,24,"c","j",1.4031,1,"S","L","Switch",0,242,"V",1,"LS"
5,4,48,"?","N","f",519.57,NA,7,56,2,24,"c","j",0.701,1,"S","S","Repeat",0,243,"V",0,"SS"
5,4,49,"?","P","d",352.26,NA,7,24,3,56,"i","n",0.50308,1,"L","L","Switch",0,244,"V",1,"LL"
5,4,50,"?","P","d",402.8,NA,7,56,2,24,"c","j",0.82042,1,"L","L","Repeat",0,245,"V",0,"LL"
5,4,51,"?","N","f",886.91,NA,3,24,8,56,"c","n",1.16863,1,"S","L","Switch",0,246,"V",1,"LS"
5,4,52,"?","N","f",803.33,NA,7,24,4,56,"i","j",1.1706,1,"S","S","Repeat",0,247,"V",0,"SS"
5,4,53,"?","P","d",452.63,NA,9,56,3,24,"c","j",0.78666,1,"S","L","Switch",0,248,"V",1,"LS"
5,4,54,"?","P","d",669.7,NA,4,56,8,24,"i","j",0.68663,1,"L","S","Repeat",0,249,"V",0,"SL"
5,4,55,"?","N","f",452.74,NA,3,24,9,56,"c","n",0.80311,1,"S","S","Switch",0,250,"V",1,"SS"
5,4,56,"?","P","d",302.92,NA,9,56,2,24,"c","j",1.37056,1,"L","S","Switch",0,251,"V",1,"SL"
5,4,57,"?","N","f",1036.5,NA,7,24,3,56,"i","j",0.60323,1,"S","L","Switch",0,252,"V",1,"LS"
5,4,58,"?","N","f",786.24,NA,2,24,7,56,"c","n",0.80175,1,"S","L","Repeat",0,253,"V",0,"LS"
5,4,59,"?","N","f",1086.41,NA,7,56,3,24,"c","j",1.00389,1,"L","L","Repeat",0,254,"V",0,"LL"
5,4,60,"?","P","d",269.29,NA,8,56,2,24,"c","j",1.27102,1,"L","S","Switch",0,255,"V",1,"SL"
5,4,61,"?","P","d",302.78,NA,4,24,9,56,"c","n",0.67021,1,"L","L","Repeat",0,256,"V",0,"LL"
5,4,62,"?","P","d",1020.29,NA,2,56,8,24,"i","j",2.08857,1,"S","S","Repeat",0,257,"V",0,"SS"
5,4,63,"?","N","f",2388.09,NA,7,24,3,56,"i","n",0.98678,0,"L","L","Switch",0,258,"V",1,"LL"
5,4,64,"?","P","d",552.2,NA,4,24,9,56,"c","n",4.97372,1,"L","S","Switch",1,259,"V",1,"SL"
5,4,65,"?","N","f",1987.94,NA,2,56,8,24,"i","n",2.85481,1,"L","L","Switch",0,260,"V",1,"LL"
5,5,2,"?","N","f",669.76,NA,7,56,2,24,"c","j",2.00431,1,"S","L","Repeat",0,262,"V",0,"LS"
5,5,3,"?","N","f",486.21,NA,3,24,7,56,"c","n",0.61936,1,"S","S","Repeat",0,263,"V",0,"SS"
5,5,4,"?","P","d",619.79,NA,2,56,7,24,"i","j",0.97053,1,"L","L","Switch",0,264,"V",1,"LL"
5,5,5,"?","P","d",469.66,NA,3,56,9,24,"i","j",0.50266,1,"S","L","Repeat",0,265,"V",0,"LS"
5,5,6,"?","P","d",703.3,NA,7,56,4,24,"c","j",0.77061,1,"S","L","Repeat",0,266,"V",0,"LS"
5,5,7,"?","P","d",686.68,NA,9,24,2,56,"i","n",0.68629,1,"S","S","Repeat",0,267,"V",0,"SS"
5,5,8,"?","P","d",2204.82,NA,3,56,8,24,"i","j",0.82064,1,"S","L","Repeat",0,268,"V",0,"LS"
5,5,9,"?","N","f",603.66,NA,7,56,4,24,"c","j",0.96792,1,"S","L","Switch",0,269,"V",1,"LS"
5,5,10,"?","N","f",336.27,NA,2,24,9,56,"c","n",3.13922,1,"L","S","Repeat",0,270,"V",0,"SL"
5,5,11,"?","N","f",402.67,NA,4,56,9,24,"i","n",1.3374,1,"L","S","Repeat",0,271,"V",0,"SL"
5,5,12,"?","N","f",585.88,NA,2,24,8,56,"c","n",0.7368,1,"S","S","Repeat",0,272,"V",0,"SS"
5,5,13,"?","P","d",653.15,NA,8,24,4,56,"i","n",0.62012,1,"S","L","Switch",0,273,"V",1,"LS"
5,5,14,"?","P","d",435.61,NA,2,24,7,56,"c","n",0.53585,1,"S","S","Repeat",0,274,"V",0,"SS"
5,5,15,"?","P","d",485.93,NA,3,24,8,56,"c","n",0.56948,1,"L","S","Repeat",0,275,"V",0,"SL"
5,5,16,"?","N","f",7577.72,NA,8,24,4,56,"i","j",1.0037,1,"S","L","Switch",0,276,"V",1,"LS"
5,5,17,"?","P","d",485.91,NA,7,24,2,56,"i","n",2.60569,1,"L","L","Switch",0,277,"V",1,"LL"
5,5,18,"?","N","f",753.14,NA,9,24,4,56,"i","j",0.62015,1,"L","S","Switch",0,278,"V",1,"SL"
5,5,19,"?","N","f",469.4,NA,8,56,2,24,"c","j",0.50282,1,"L","L","Repeat",0,279,"V",0,"LL"
5,5,20,"?","P","d",369.49,NA,3,56,9,24,"i","j",0.58602,1,"S","S","Switch",0,280,"V",1,"SS"
5,5,21,"?","P","d",319.37,NA,7,24,4,56,"i","n",0.70327,1,"L","S","Repeat",0,281,"V",0,"SL"
5,5,22,"?","N","f",736.65,NA,8,24,3,56,"i","j",0.85352,1,"S","S","Switch",0,282,"V",1,"SS"
5,5,23,"?","P","d",569.15,NA,2,56,7,24,"i","j",0.6361,1,"L","L","Switch",0,283,"V",1,"LL"
5,5,24,"?","N","f",285.99,NA,4,24,7,56,"c","n",1.32071,1,"L","S","Switch",0,284,"V",1,"SL"
5,5,25,"?","P","d",536.11,NA,8,24,2,56,"i","n",0.5174,1,"S","L","Switch",0,285,"V",1,"LS"
5,5,26,"?","N","f",385.69,NA,9,24,3,56,"i","j",0.7189,1,"S","S","Switch",0,286,"V",1,"SS"
5,5,27,"?","P","d",269.49,NA,2,24,9,56,"c","n",1.07138,1,"L","L","Switch",0,287,"V",1,"LL"
5,5,28,"?","P","d",252.43,NA,9,24,3,56,"i","n",1.00391,1,"L","L","Repeat",0,288,"V",0,"LL"
5,5,29,"?","P","d",519.36,NA,4,56,7,24,"i","j",0.93597,1,"L","S","Repeat",0,289,"V",0,"SL"
5,5,30,"?","N","f",503.01,NA,2,56,8,24,"i","n",0.61914,1,"S","S","Switch",0,290,"V",1,"SS"
5,5,31,"?","N","f",385.74,NA,7,56,3,24,"c","j",0.6202,1,"S","S","Repeat",0,291,"V",0,"SS"
5,5,32,"?","N","f",536.22,NA,7,56,4,24,"c","j",0.53601,1,"L","S","Repeat",0,292,"V",0,"SL"
5,5,33,"?","P","d",803.24,NA,2,24,8,56,"c","n",1.37097,1,"L","L","Switch",0,293,"V",1,"LL"
5,5,34,"?","N","f",268.13,NA,3,56,7,24,"i","n",1.47121,1,"L","S","Switch",0,294,"V",1,"SL"
5,5,35,"?","P","d",986.55,NA,9,56,2,24,"c","j",1.83737,1,"S","L","Switch",0,295,"V",1,"LS"
5,5,36,"?","P","d",302.67,NA,8,56,4,24,"c","j",0.56952,1,"L","S","Repeat",0,296,"V",0,"SL"
5,5,37,"?","N","f",302.62,NA,9,24,2,56,"i","j",2.65551,1,"L","S","Switch",0,297,"V",1,"SL"
5,5,38,"?","N","f",1436.81,NA,4,24,9,56,"c","n",0.81949,1,"S","S","Repeat",0,298,"V",0,"SS"
5,5,39,"?","P","d",951.34,NA,8,56,3,24,"c","j",0.52012,1,"S","S","Switch",0,299,"V",1,"SS"
5,5,40,"?","P","d",336.04,NA,7,56,2,24,"c","j",1.45256,1,"L","L","Repeat",0,300,"V",0,"LL"
5,5,41,"?","N","f",302.46,NA,8,56,4,24,"c","j",0.55124,1,"L","L","Switch",0,301,"V",1,"LL"
5,5,42,"?","N","f",302.95,NA,2,24,7,56,"c","n",0.78658,1,"L","L","Repeat",0,302,"V",0,"LL"
5,5,43,"?","N","f",3472.16,NA,9,56,4,24,"c","j",0.61799,1,"L","S","Repeat",0,303,"V",0,"SL"
5,5,44,"?","P","d",619.46,NA,3,24,7,56,"c","n",1.30288,1,"S","L","Switch",0,304,"V",1,"LS"
5,5,45,"?","P","d",836.67,NA,4,24,9,56,"c","n",0.72023,1,"S","L","Repeat",0,305,"V",0,"LS"
5,5,46,"?","P","d",386.68,NA,9,24,3,56,"i","n",1.1038,1,"S","S","Repeat",0,306,"V",0,"SS"
5,5,47,"?","N","f",319.2,NA,4,24,7,56,"c","n",1.00317,1,"L","L","Switch",0,307,"V",1,"LL"
5,5,48,"?","N","f",302.53,NA,7,24,2,56,"i","j",0.88741,1,"L","L","Repeat",0,308,"V",0,"LL"
5,5,49,"?","N","f",352.65,NA,8,56,3,24,"c","j",0.7197,1,"L","S","Repeat",0,309,"V",0,"SL"
5,5,50,"?","P","d",336.19,NA,2,24,9,56,"c","n",1.53764,1,"L","S","Switch",0,310,"V",1,"SL"
5,5,51,"?","P","d",503.15,NA,8,56,4,24,"c","j",0.55131,1,"S","S","Repeat",0,311,"V",0,"SS"
5,5,52,"?","P","d",653.03,NA,9,56,3,24,"c","j",0.80367,1,"S","S","Repeat",0,312,"V",0,"SS"
5,5,53,"?","N","f",703.03,NA,2,24,8,56,"c","n",3.05665,1,"S","L","Switch",0,313,"V",1,"LS"
5,5,54,"?","P","d",402.85,NA,7,24,4,56,"i","n",0.63665,1,"S","L","Switch",0,314,"V",1,"LS"
5,5,55,"?","N","f",534.46,NA,7,56,3,24,"c","j",0.88659,1,"L","L","Switch",0,315,"V",1,"LL"
5,5,56,"?","P","d",569.35,NA,8,24,2,56,"i","n",0.83657,1,"S","L","Switch",0,316,"V",1,"LS"
5,5,57,"?","N","f",335.6,NA,3,56,8,24,"i","n",0.87061,1,"L","L","Switch",0,317,"V",1,"LL"
5,5,58,"?","P","d",703.68,NA,4,24,8,56,"c","n",0.48635,1,"S","L","Switch",0,318,"V",1,"LS"
5,5,59,"?","N","f",1086.85,NA,9,24,3,56,"i","j",2.95527,1,"L","S","Switch",0,319,"V",1,"SL"
5,5,60,"?","N","f",1704.2,NA,2,56,9,24,"i","n",0.9867,1,"L","L","Repeat",0,320,"V",0,"LL"
5,5,61,"?","P","d",937.17,NA,9,24,4,56,"i","n",2.25482,1,"S","S","Switch",0,321,"V",1,"SS"
5,5,62,"?","P","d",752.97,NA,3,56,7,24,"i","j",0.8866,1,"S","L","Repeat",0,322,"V",0,"LS"
5,5,63,"?","N","f",903.18,NA,7,24,4,56,"i","j",1.42038,1,"L","L","Switch",0,323,"V",1,"LL"
5,5,64,"?","N","f",201.9,NA,2,56,9,24,"i","n",0.75304,1,"L","S","Repeat",0,324,"V",0,"SL"
5,5,65,"?","P","d",452.77,NA,3,56,9,24,"i","j",0.58629,1,"S","S","Switch",0,325,"V",1,"SS"
5,6,2,"?","N","f",420.52,NA,9,56,3,24,"c","j",0.6536,1,"S","S","Repeat",0,327,"V",0,"SS"
5,6,3,"?","P","d",535.84,NA,7,24,4,56,"i","n",1.03593,1,"S","L","Switch",0,328,"V",1,"LS"
5,6,4,"?","P","d",369.39,NA,9,56,2,24,"c","j",0.48605,1,"S","L","Repeat",0,329,"V",0,"LS"
5,6,5,"?","N","f",303.81,NA,4,56,9,24,"i","n",0.78648,1,"S","S","Switch",0,330,"V",1,"SS"
5,6,6,"?","N","f",319.32,NA,9,56,3,24,"c","j",0.67054,1,"S","S","Repeat",0,331,"V",0,"SS"
5,6,7,"?","P","d",636.45,NA,4,24,7,56,"c","n",1.07061,1,"L","L","Switch",0,332,"V",1,"LL"
5,6,8,"?","P","d",336.11,NA,7,56,3,24,"c","j",0.57034,1,"L","S","Repeat",0,333,"V",0,"SL"
5,6,9,"?","N","f",552.82,NA,2,24,8,56,"c","n",1.22065,1,"S","S","Switch",0,334,"V",1,"SS"
5,6,10,"?","N","f",386.05,NA,9,24,3,56,"i","j",0.56984,1,"S","S","Repeat",0,335,"V",0,"SS"
5,6,11,"?","P","d",452.77,NA,7,24,4,56,"i","n",0.90357,1,"S","L","Switch",0,336,"V",1,"LS"
5,6,12,"?","N","f",485.31,NA,3,56,8,24,"i","n",1.26857,1,"S","S","Switch",0,337,"V",1,"SS"
5,6,13,"?","P","d",369.28,NA,2,24,7,56,"c","n",0.86973,1,"L","S","Switch",0,338,"V",1,"SL"
5,6,14,"?","N","f",385.37,NA,4,56,7,24,"i","n",0.73655,1,"S","L","Switch",0,339,"V",1,"LS"
5,6,15,"?","P","d",352.12,NA,2,56,7,24,"i","j",1.0371,1,"L","S","Switch",0,340,"V",1,"SL"
5,6,16,"?","N","f",318.62,NA,7,24,3,56,"i","j",0.76928,1,"L","S","Switch",0,341,"V",1,"SL"
5,6,17,"?","P","d",970.19,NA,2,56,8,24,"i","j",0.55379,1,"L","L","Switch",0,342,"V",1,"LL"
5,6,18,"?","N","f",302.14,NA,8,56,4,24,"c","j",0.58745,1,"L","S","Switch",0,343,"V",1,"SL"
5,6,19,"?","N","f",669.78,NA,7,24,2,56,"i","j",0.90355,1,"S","L","Repeat",0,344,"V",0,"LS"
5,6,20,"?","P","d",602.87,NA,7,24,4,56,"i","n",0.67021,1,"L","L","Switch",0,345,"V",1,"LL"
5,6,21,"?","P","d",301.98,NA,8,24,2,56,"i","n",1.67125,1,"L","S","Repeat",0,346,"V",0,"SL"
5,6,22,"?","P","d",586.4,NA,3,24,7,56,"c","n",0.58675,1,"S","L","Repeat",0,347,"V",0,"LS"
5,6,23,"?","N","f",418.13,NA,4,56,8,24,"i","n",1.40468,1,"L","S","Switch",0,348,"V",1,"SL"
5,6,24,"?","N","f",486.96,NA,8,24,2,56,"i","j",0.62002,1,"S","S","Repeat",0,349,"V",0,"SS"
5,6,25,"?","N","f",536.01,NA,8,24,4,56,"i","j",0.90335,1,"S","L","Repeat",0,350,"V",0,"LS"
5,6,26,"?","N","f",319.49,NA,7,24,3,56,"i","j",1.18731,1,"L","S","Repeat",0,351,"V",0,"SL"
5,6,27,"?","N","f",302.48,NA,7,56,4,24,"c","j",0.58684,1,"L","L","Repeat",0,352,"V",0,"LL"
5,6,28,"?","N","f",636,NA,3,56,8,24,"i","n",0.58617,1,"S","S","Repeat",0,353,"V",0,"SS"
5,6,29,"?","P","d",369.41,NA,4,56,9,24,"i","j",1.05391,1,"L","S","Switch",0,354,"V",1,"SL"
5,6,30,"?","P","d",435.99,NA,2,56,7,24,"i","j",0.55343,1,"S","S","Repeat",0,355,"V",0,"SS"
5,6,31,"?","P","d",302.87,NA,7,56,3,24,"c","j",0.61967,1,"L","S","Repeat",0,356,"V",0,"SL"
5,6,32,"?","P","d",302.53,NA,2,24,9,56,"c","n",0.57017,1,"L","S","Repeat",0,357,"V",0,"SL"
5,6,33,"?","P","d",536.06,NA,3,24,8,56,"c","n",0.70265,1,"S","L","Repeat",0,358,"V",0,"LS"
5,6,34,"?","N","f",469.17,NA,7,24,2,56,"i","j",1.80377,1,"S","L","Switch",0,359,"V",1,"LS"
5,6,35,"?","P","d",619.38,NA,7,56,3,24,"c","j",1.38757,1,"S","S","Switch",0,360,"V",1,"SS"
5,6,36,"?","N","f",319.11,NA,4,24,7,56,"c","n",0.56983,1,"L","L","Switch",0,361,"V",1,"LL"
5,6,37,"?","P","d",235.78,NA,7,24,3,56,"i","n",0.83641,1,"L","S","Switch",0,362,"V",1,"SL"
5,6,38,"?","N","f",269.15,NA,8,56,2,24,"c","j",0.65353,1,"L","L","Switch",0,363,"V",1,"LL"
5,6,39,"?","P","d",519.46,NA,4,24,7,56,"c","n",1.57111,1,"S","L","Switch",0,364,"V",1,"LS"
5,6,40,"?","N","f",435.98,NA,2,24,9,56,"c","n",1.1707,1,"S","L","Switch",0,365,"V",1,"LS"
5,6,41,"?","P","d",285.65,NA,4,24,8,56,"c","n",1.58547,1,"L","S","Switch",0,366,"V",1,"SL"
5,6,42,"?","N","f",402.66,NA,8,56,2,24,"c","j",0.73709,1,"L","L","Switch",0,367,"V",1,"LL"
5,6,43,"?","N","f",469.46,NA,4,56,9,24,"i","n",1.17104,1,"S","L","Repeat",0,368,"V",0,"LS"
5,6,44,"?","N","f",402.82,NA,8,56,3,24,"c","j",0.63632,1,"S","L","Repeat",0,369,"V",0,"LS"
5,6,45,"?","N","f",335.83,NA,4,24,8,56,"c","n",0.55309,1,"L","S","Repeat",0,370,"V",0,"SL"
5,6,46,"?","N","f",319.2,NA,8,56,3,24,"c","j",0.56907,1,"S","L","Repeat",0,371,"V",0,"LS"
5,6,47,"?","P","d",68.97,NA,8,24,2,56,"i","n",0.83657,1,"L","L","Switch",0,372,"V",1,"LL"
5,6,48,"?","P","d",452.29,NA,4,24,9,56,"c","n",0.56997,1,"S","S","Repeat",0,373,"V",0,"SS"
5,6,49,"?","P","d",319.23,NA,2,56,9,24,"i","j",0.63719,1,"L","L","Repeat",0,374,"V",0,"LL"
5,6,50,"?","P","d",285.96,NA,7,24,3,56,"i","n",0.68647,1,"L","L","Repeat",0,375,"V",0,"LL"
5,6,51,"?","N","f",770.59,NA,2,24,8,56,"c","n",0.92003,1,"S","S","Switch",0,376,"V",1,"SS"
5,6,52,"?","P","d",486.02,NA,9,24,4,56,"i","n",0.98675,1,"L","S","Switch",0,377,"V",1,"SL"
5,6,53,"?","N","f",302.47,NA,9,24,3,56,"i","j",0.50322,1,"L","L","Switch",0,378,"V",1,"LL"
5,6,54,"?","P","d",552.7,NA,4,24,9,56,"c","n",3.89023,1,"L","L","Switch",0,379,"V",1,"LL"
5,6,55,"?","N","f",418.77,NA,2,24,8,56,"c","n",2.18803,1,"L","L","Switch",0,380,"V",1,"LL"
5,6,56,"?","N","f",586.34,NA,3,56,7,24,"i","n",0.66962,1,"S","S","Repeat",0,381,"V",0,"SS"
5,6,57,"?","N","f",319.12,NA,2,56,8,24,"i","n",0.6203,1,"L","L","Repeat",0,382,"V",0,"LL"
5,6,58,"?","P","d",485.98,NA,7,56,3,24,"c","j",1.10383,1,"L","L","Switch",0,383,"V",1,"LL"
5,6,59,"?","P","d",286.08,NA,8,56,2,24,"c","j",0.60279,1,"L","S","Repeat",0,384,"V",0,"SL"
5,6,60,"?","P","d",469.66,NA,8,56,4,24,"c","j",0.78657,1,"S","S","Repeat",0,385,"V",0,"SS"
5,6,61,"?","N","f",837.25,NA,7,56,3,24,"c","j",0.90368,1,"S","L","Switch",0,386,"V",1,"LS"
5,6,62,"?","N","f",536.22,NA,9,24,2,56,"i","j",0.70338,1,"S","L","Repeat",0,387,"V",0,"LS"
5,6,63,"?","P","d",485.71,NA,3,24,8,56,"c","n",0.58562,1,"S","S","Switch",0,388,"V",1,"SS"
5,6,64,"?","P","d",302.89,NA,2,56,8,24,"i","j",1.18719,1,"L","L","Repeat",0,389,"V",0,"LL"
5,6,65,"?","N","f",1337.23,NA,7,24,3,56,"i","j",1.13797,1,"S","S","Switch",0,390,"V",1,"SS"
9,1,2,"?","P","f",3054.63,NA,3,56,9,24,"i","n",0.8705,0,"S","L","Switch",0,2,"V",1,"LS"
9,1,3,"?","N","d",2321.5,NA,2,24,8,56,"c","n",0.87053,1,"L","L","Switch",1,3,"V",1,"LL"
9,1,4,"?","N","d",2255.1,NA,7,56,4,24,"c","j",1.20378,1,"L","L","Repeat",0,4,"V",0,"LL"
9,1,5,"?","P","f",2939.02,NA,3,24,7,56,"c","n",0.78743,1,"L","L","Switch",0,5,"V",1,"LL"
9,1,6,"?","N","d",4557.51,NA,7,56,4,24,"c","j",1.2034,1,"S","S","Switch",0,6,"V",1,"SS"
9,1,7,"?","P","f",3255.96,NA,3,56,8,24,"i","j",1.42137,1,"S","L","Switch",0,7,"V",1,"LS"
9,1,8,"?","P","f",936.66,NA,2,56,8,24,"i","j",1.43725,1,"L","S","Repeat",0,8,"V",0,"SL"
9,1,9,"?","N","d",4840.6,NA,3,24,9,56,"c","n",1.18762,1,"S","S","Switch",0,9,"V",1,"SS"
9,1,10,"?","N","d",1953.95,NA,2,24,7,56,"c","n",0.68697,1,"L","S","Repeat",0,10,"V",0,"SL"
9,1,11,"?","N","d",4007.26,NA,3,56,8,24,"i","n",1.0539,1,"S","L","Repeat",0,11,"V",0,"LS"
9,1,12,"?","P","f",3940.18,NA,9,24,2,56,"i","n",1.28707,1,"S","L","Switch",0,12,"V",1,"LS"
9,1,13,"?","P","f",1554.19,NA,4,56,7,24,"i","j",0.9207,1,"L","L","Repeat",0,13,"V",0,"LL"
9,1,14,"?","P","f",3589.63,NA,9,24,3,56,"i","n",0.75296,1,"L","L","Repeat",0,14,"V",0,"LL"
9,1,15,"?","N","d",4824.4,NA,2,24,7,56,"c","n",1.47093,1,"S","S","Switch",0,15,"V",1,"SS"
9,1,16,"?","N","d",1336.9,NA,3,56,8,24,"i","n",1.57169,1,"L","S","Repeat",0,16,"V",0,"SL"
9,1,17,"?","P","f",2171.18,NA,2,24,8,56,"c","n",1.00409,1,"S","L","Switch",0,17,"V",1,"LS"
9,1,18,"?","P","f",1637.5,NA,7,24,3,56,"i","n",1.05409,1,"L","S","Repeat",0,18,"V",0,"SL"
9,1,19,"?","N","d",3806.69,NA,9,24,2,56,"i","j",1.3875,1,"S","L","Switch",0,19,"V",1,"LS"
9,1,20,"?","P","f",3155.09,NA,9,24,3,56,"i","n",1.28719,1,"S","S","Switch",0,20,"V",1,"SS"
9,1,21,"?","N","d",1687.44,NA,4,24,9,56,"c","n",1.12033,1,"L","S","Switch",0,21,"V",1,"SL"
9,1,22,"?","N","d",1103.51,NA,7,24,2,56,"i","j",0.98706,1,"L","L","Repeat",0,22,"V",0,"LL"
9,1,23,"?","P","f",1637.81,NA,9,24,4,56,"i","n",0.67019,1,"S","L","Switch",0,23,"V",1,"LS"
9,1,24,"?","P","f",920.29,NA,9,24,3,56,"i","n",1.67135,1,"L","L","Repeat",0,24,"V",0,"LL"
9,1,25,"?","N","d",4089.52,NA,9,56,4,24,"c","j",1.13725,1,"S","S","Switch",0,25,"V",1,"SS"
9,1,26,"?","N","d",802.93,NA,2,56,7,24,"i","n",0.86978,1,"L","L","Repeat",0,26,"V",0,"LL"
9,1,27,"?","N","d",852.61,NA,3,56,7,24,"i","n",0.90382,1,"L","S","Repeat",0,27,"V",0,"SL"
9,1,28,"?","P","f",686.57,NA,2,24,8,56,"c","n",0.8698,1,"L","L","Switch",0,28,"V",1,"LL"
9,1,29,"?","N","d",2538.14,NA,4,56,8,24,"i","n",1.46995,1,"S","S","Switch",0,29,"V",1,"SS"
9,1,30,"?","P","f",1520.41,NA,3,24,7,56,"c","n",0.56992,1,"S","L","Switch",0,30,"V",1,"LS"
9,1,31,"?","P","f",1503.99,NA,8,56,2,24,"c","j",1.11842,1,"S","S","Repeat",0,31,"V",0,"SS"
9,1,32,"?","P","f",1621.3,NA,3,24,8,56,"c","n",0.81992,1,"S","L","Repeat",0,32,"V",0,"LS"
9,1,33,"?","N","d",1136.88,NA,8,24,4,56,"i","j",1.00316,1,"S","S","Switch",0,33,"V",1,"SS"
9,1,34,"?","N","d",686.45,NA,8,56,2,24,"c","j",0.87014,1,"L","L","Repeat",0,34,"V",0,"LL"
9,1,35,"?","P","f",969.59,NA,9,56,4,24,"c","j",0.66991,1,"L","L","Switch",0,35,"V",1,"LL"
9,1,36,"?","N","d",586.25,NA,9,24,2,56,"i","j",1.15327,1,"L","L","Switch",0,36,"V",1,"LL"
9,1,37,"?","N","d",3239.41,NA,4,24,9,56,"c","n",0.78671,1,"S","S","Repeat",0,37,"V",0,"SS"
9,1,38,"?","P","f",402.76,NA,8,56,2,24,"c","j",1.05411,1,"L","S","Switch",0,38,"V",1,"SL"
9,1,39,"?","N","d",3556.4,NA,8,24,3,56,"i","j",1.13645,1,"L","S","Switch",0,39,"V",1,"SL"
9,1,40,"?","N","d",1871.12,NA,8,56,4,24,"c","j",0.85298,1,"S","S","Repeat",0,40,"V",0,"SS"
9,1,41,"?","P","f",1270.35,NA,9,24,3,56,"i","n",1.28776,1,"L","L","Switch",0,41,"V",1,"LL"
9,1,42,"?","P","f",2005.11,NA,4,24,9,56,"c","n",0.71955,1,"S","L","Repeat",0,42,"V",0,"LS"
9,1,43,"?","P","f",2054.72,NA,9,56,3,24,"c","j",0.93678,1,"S","L","Repeat",0,43,"V",0,"LS"
9,1,44,"?","N","d",1368.48,NA,9,56,4,24,"c","j",0.93774,1,"S","L","Switch",0,44,"V",1,"LS"
9,1,45,"?","N","d",1236.87,NA,9,24,2,56,"i","j",1.12,1,"S","S","Repeat",0,45,"V",0,"SS"
9,1,46,"?","P","f",869.97,NA,8,24,3,56,"i","n",0.81956,1,"S","S","Switch",0,46,"V",1,"SS"
9,1,47,"?","N","d",636.51,NA,8,56,2,24,"c","j",0.83647,1,"S","L","Switch",0,47,"V",1,"LS"
9,1,48,"?","P","f",2.44,NA,4,56,8,24,"i","j",1.6689,1,"L","S","Switch",0,48,"V",1,"SL"
9,1,49,"?","N","d",786.69,NA,9,24,3,56,"i","j",1.07065,1,"S","S","Switch",0,49,"V",1,"SS"
9,1,50,"?","P","f",452.9,NA,7,24,2,56,"i","n",0.75345,1,"S","S","Switch",0,50,"V",1,"SS"
9,1,51,"?","P","f",553.11,NA,4,24,7,56,"c","n",1.20325,1,"S","S","Repeat",0,51,"V",0,"SS"
9,1,52,"?","P","f",619.82,NA,7,56,3,24,"c","j",1.17007,1,"L","L","Repeat",0,52,"V",0,"LL"
9,1,53,"?","N","d",536.23,NA,8,56,2,24,"c","j",0.8697,1,"L","S","Switch",0,53,"V",1,"SL"
9,1,54,"?","N","d",669.47,NA,7,56,3,24,"c","j",0.71935,1,"S","L","Repeat",0,54,"V",0,"LS"
9,1,55,"?","P","f",469.75,NA,2,24,8,56,"c","n",0.95324,1,"L","L","Switch",0,55,"V",1,"LL"
9,1,56,"?","N","d",319.44,NA,9,56,4,24,"c","j",0.76924,1,"L","S","Switch",0,56,"V",1,"SL"
9,1,57,"?","P","f",636.21,NA,8,56,2,24,"c","j",0.8178,1,"L","S","Switch",0,57,"V",1,"SL"
9,1,58,"?","N","d",1570.68,NA,4,56,9,24,"i","n",0.93716,1,"S","L","Switch",0,58,"V",1,"LS"
9,1,59,"?","P","f",3773.38,NA,3,56,8,24,"i","j",0.78718,1,"S","S","Switch",0,59,"V",1,"SS"
9,1,60,"?","N","d",719.66,NA,4,24,8,56,"c","n",1.50373,1,"L","S","Switch",0,60,"V",1,"SL"
9,1,61,"?","P","f",736.03,NA,2,24,7,56,"c","n",1.23733,1,"L","S","Switch",0,61,"V",1,"SL"
9,1,62,"?","P","f",1087.18,NA,4,56,7,24,"i","j",0.83714,1,"S","L","Repeat",0,62,"V",0,"LS"
9,1,63,"?","P","f",536,NA,9,24,2,56,"i","n",0.78632,1,"L","S","Repeat",0,63,"V",0,"SL"
9,1,64,"?","P","f",351.17,NA,3,56,9,24,"i","j",1.42104,1,"L","S","Repeat",0,64,"V",0,"SL"
9,1,65,"?","N","d",569.38,NA,7,24,4,56,"i","j",1.48811,1,"L","L","Switch",0,65,"V",1,"LL"
9,2,2,"?","P","f",3022.54,NA,9,24,4,56,"i","n",1.07015,1,"S","S","Switch",1,67,"V",1,"SS"
9,2,3,"?","P","f",1554.3,NA,2,24,8,56,"c","n",0.6369,1,"S","S","Repeat",0,68,"V",0,"SS"
9,2,4,"?","P","f",803.55,NA,3,24,7,56,"c","n",0.58564,1,"L","S","Repeat",0,69,"V",0,"SL"
9,2,5,"?","N","d",1854.11,NA,8,24,4,56,"i","j",1.45452,1,"S","L","Switch",0,70,"V",1,"LS"
9,2,6,"?","N","d",2137.45,NA,7,56,2,24,"c","j",0.7369,1,"S","L","Repeat",0,71,"V",0,"LS"
9,2,7,"?","P","f",619.58,NA,4,24,7,56,"c","n",0.70282,1,"L","L","Switch",0,72,"V",1,"LL"
9,2,8,"?","N","d",1854.45,NA,7,56,2,24,"c","j",1.18726,1,"S","S","Switch",0,73,"V",1,"SS"
9,2,9,"?","N","d",886.64,NA,3,56,7,24,"i","n",0.95314,1,"L","L","Repeat",0,74,"V",0,"LL"
9,2,10,"?","P","f",3055.97,NA,9,56,4,24,"c","j",1.45492,1,"S","L","Switch",0,75,"V",1,"LS"
9,2,11,"?","P","f",1120.17,NA,3,56,8,24,"i","n",0.8364,0,"L","S","Repeat",0,76,"V",0,"SL"
9,2,12,"?","N","d",886.81,NA,8,24,4,56,"i","j",1.28707,1,"L","S","Switch",1,77,"V",1,"SL"
9,2,13,"?","P","f",6325.99,NA,3,56,8,24,"i","j",0.86999,1,"S","S","Switch",0,78,"V",1,"SS"
9,2,14,"?","P","f",452.92,NA,7,24,4,56,"i","n",0.67017,1,"L","S","Repeat",0,79,"V",0,"SL"
9,2,15,"?","P","f",703.11,NA,8,56,2,24,"c","j",1.60481,1,"L","S","Repeat",0,80,"V",0,"SL"
9,2,16,"?","N","d",1721.07,NA,7,56,3,24,"c","j",1.07038,1,"S","L","Switch",0,81,"V",1,"LS"
9,2,17,"?","N","d",1435.13,NA,9,24,2,56,"i","j",1.37068,1,"S","L","Repeat",0,82,"V",0,"LS"
9,2,18,"?","N","d",1186.37,NA,4,24,8,56,"c","n",1.00334,1,"L","L","Repeat",0,83,"V",0,"LL"
9,2,19,"?","P","f",2122.04,NA,9,24,3,56,"i","n",0.9878,1,"S","L","Switch",0,84,"V",1,"LS"
9,2,20,"?","N","d",1119.62,NA,8,24,4,56,"i","j",1.33684,1,"L","L","Switch",0,85,"V",1,"LL"
9,2,21,"?","P","f",1487.29,NA,3,56,9,24,"i","j",0.75377,1,"L","L","Switch",0,86,"V",1,"LL"
9,2,22,"?","P","f",2020.62,NA,2,56,8,24,"i","j",0.60303,1,"L","L","Repeat",0,87,"V",0,"LL"
9,2,23,"?","N","d",3289.19,NA,9,24,3,56,"i","j",1.15377,1,"S","S","Switch",0,88,"V",1,"SS"
9,2,24,"?","N","d",3138.65,NA,7,56,2,24,"c","j",1.03722,1,"S","S","Repeat",0,89,"V",0,"SS"
9,2,25,"?","P","f",3739.3,NA,4,24,7,56,"c","n",1.17048,1,"L","L","Switch",0,90,"V",1,"LL"
9,2,26,"?","N","d",2722.14,NA,7,56,2,24,"c","j",1.02076,1,"S","L","Switch",0,91,"V",1,"LS"
9,2,27,"?","N","d",1587.8,NA,3,24,8,56,"c","n",1.01974,1,"L","S","Repeat",0,92,"V",0,"SL"
9,2,28,"?","P","f",4240.21,NA,8,24,2,56,"i","n",1.03764,1,"S","L","Switch",0,93,"V",1,"LS"
9,2,29,"?","N","d",2822.44,NA,3,24,8,56,"c","n",0.88638,1,"S","L","Switch",0,94,"V",1,"LS"
9,2,30,"?","P","f",1253.73,NA,2,24,8,56,"c","n",1.13607,1,"L","S","Switch",0,95,"V",1,"SL"
9,2,31,"?","N","d",1654.16,NA,8,56,4,24,"c","j",1.17057,1,"L","L","Switch",0,96,"V",1,"LL"
9,2,32,"?","P","f",3156.03,NA,3,24,8,56,"c","n",0.97076,1,"S","L","Switch",0,97,"V",1,"LS"
9,2,33,"?","N","d",2104.22,NA,2,56,9,24,"i","n",1.0196,1,"L","L","Switch",0,98,"V",1,"LL"
9,2,34,"?","P","f",851.59,NA,4,56,7,24,"i","j",1.06942,1,"L","L","Switch",0,99,"V",1,"LL"
9,2,35,"?","P","f",1869.27,NA,2,24,9,56,"c","n",1.08681,1,"S","S","Repeat",0,100,"V",0,"SS"
9,2,36,"?","N","d",4590.63,NA,4,56,7,24,"i","n",1.01988,1,"S","S","Switch",0,101,"V",1,"SS"
9,2,37,"?","N","d",2004.32,NA,3,24,7,56,"c","n",1.07015,1,"S","S","Repeat",0,102,"V",0,"SS"
9,2,38,"?","N","d",820.17,NA,7,24,4,56,"i","j",1.25448,1,"L","S","Repeat",0,103,"V",0,"SL"
9,2,39,"?","P","f",1170.3,NA,8,24,3,56,"i","j",1.37048,0,"S","S","Switch",0,104,"V",1,"SS"
9,2,40,"?","P","f",685.63,NA,4,24,7,56,"c","n",0.63671,1,"L","L","Repeat",1,105,"V",0,"LL"
9,2,41,"?","P","f",1036.49,NA,7,24,3,56,"i","n",1.30391,1,"L","L","Repeat",0,106,"V",0,"LL"
9,2,42,"?","N","d",736.19,NA,4,56,9,24,"i","n",0.98673,1,"L","S","Switch",0,107,"V",1,"SL"
9,2,43,"?","N","d",736.78,NA,8,56,3,24,"c","j",1.25386,1,"L","S","Repeat",0,108,"V",0,"SL"
9,2,44,"?","P","f",619.2,NA,8,56,2,24,"c","j",0.75277,1,"L","L","Switch",0,109,"V",1,"LL"
9,2,45,"?","N","d",368.78,NA,7,56,3,24,"c","j",1.0348,1,"L","L","Switch",0,110,"V",1,"LL"
9,2,46,"?","P","f",1737.46,NA,8,24,2,56,"i","n",1.05329,1,"S","L","Switch",0,111,"V",1,"LS"
9,2,47,"?","P","f",2271.48,NA,8,24,4,56,"i","n",1.28788,1,"S","S","Repeat",0,112,"V",0,"SS"
9,2,48,"?","P","f",1203.63,NA,7,56,3,24,"c","j",0.90326,1,"L","S","Repeat",0,113,"V",0,"SL"
9,2,49,"?","N","d",2755.35,NA,4,24,7,56,"c","n",0.83568,1,"S","S","Switch",0,114,"V",1,"SS"
9,2,50,"?","N","d",2053.97,NA,9,24,2,56,"i","j",1.10388,1,"S","L","Repeat",0,115,"V",0,"LS"
9,2,51,"?","P","f",2104.24,NA,3,56,9,24,"i","j",1.18509,1,"L","S","Switch",0,116,"V",1,"SL"
9,2,52,"?","N","d",1737.33,NA,7,24,4,56,"i","j",0.88723,1,"S","L","Switch",0,117,"V",1,"LS"
9,2,53,"?","N","d",3089.15,NA,7,24,3,56,"i","j",1.17094,1,"S","S","Repeat",0,118,"V",0,"SS"
9,2,54,"?","P","f",2355.06,NA,9,56,4,24,"c","j",0.9868,1,"S","S","Switch",0,119,"V",1,"SS"
9,2,55,"?","N","d",485.97,NA,2,56,7,24,"i","n",1.10336,1,"L","S","Switch",0,120,"V",1,"SL"
9,2,56,"?","P","f",770.11,NA,7,24,4,56,"i","n",1.05395,1,"L","L","Switch",0,121,"V",1,"LL"
9,2,57,"?","N","d",752.96,NA,2,56,9,24,"i","n",1.15404,1,"L","S","Switch",0,122,"V",1,"SL"
9,2,58,"?","P","f",1604.16,NA,7,56,4,24,"c","j",1.08718,1,"L","S","Switch",0,123,"V",1,"SL"
9,2,59,"?","N","d",2822.3,NA,9,56,3,24,"c","j",0.82017,1,"S","S","Switch",0,124,"V",1,"SS"
9,2,60,"?","P","f",1503.63,NA,4,24,9,56,"c","n",1.28704,1,"L","S","Switch",0,125,"V",1,"SL"
9,2,61,"?","N","d",736.06,NA,9,56,2,24,"c","j",0.91972,1,"L","L","Switch",0,126,"V",1,"LL"
9,2,62,"?","P","f",2756.41,NA,4,24,9,56,"c","n",0.63673,1,"S","L","Switch",0,127,"V",1,"LS"
9,2,63,"?","N","d",3756.62,NA,3,56,9,24,"i","n",1.28737,1,"S","L","Switch",0,128,"V",1,"LS"
9,2,64,"?","N","d",2888.48,NA,4,24,8,56,"c","n",0.6704,1,"S","L","Repeat",0,129,"V",0,"LS"
9,2,65,"?","P","f",3256.06,NA,3,56,7,24,"i","j",1.17024,1,"S","S","Switch",0,130,"V",1,"SS"
9,3,2,"?","N","d",1120.11,NA,9,56,2,24,"c","n",0.85383,0,"S","L","Repeat",0,132,"V",0,"LS"
9,3,3,"?","P","f",469.43,NA,9,56,4,24,"c","j",0.58661,1,"L","L","Switch",1,133,"V",1,"LL"
9,3,4,"?","P","f",2071.09,NA,8,24,2,56,"i","n",1.52003,1,"S","S","Repeat",0,134,"V",0,"SS"
9,3,5,"?","N","d",652.94,NA,3,56,8,24,"i","n",1.08702,1,"L","S","Switch",0,135,"V",1,"SL"
9,3,6,"?","P","f",1902.37,NA,9,56,4,24,"c","j",1.25336,1,"S","S","Switch",0,136,"V",1,"SS"
9,3,7,"?","N","d",852.66,NA,9,56,2,24,"c","j",0.82024,1,"L","L","Switch",0,137,"V",1,"LL"
9,3,8,"?","P","f",1687.44,NA,4,24,7,56,"c","n",0.65332,1,"S","L","Switch",0,138,"V",1,"LS"
9,3,9,"?","N","d",486.19,NA,3,56,9,24,"i","n",0.80332,1,"L","L","Switch",0,139,"V",1,"LL"
9,3,10,"?","N","d",486.35,NA,8,24,2,56,"i","j",1.22028,1,"L","L","Repeat",0,140,"V",0,"LL"
9,3,11,"?","N","d",536.55,NA,4,56,7,24,"i","n",1.08645,1,"L","S","Repeat",0,141,"V",0,"SL"
9,3,12,"?","P","f",519.52,NA,9,24,3,56,"i","n",0.66971,1,"L","S","Switch",0,142,"V",1,"SL"
9,3,13,"?","P","f",919.85,NA,2,24,8,56,"c","n",0.58646,1,"S","S","Repeat",0,143,"V",0,"SS"
9,3,14,"?","N","d",352.7,NA,4,24,8,56,"c","n",0.60335,1,"L","L","Switch",0,144,"V",1,"LL"
9,3,15,"?","N","d",436.18,NA,2,56,7,24,"i","n",0.9206,1,"L","L","Repeat",0,145,"V",0,"LL"
9,3,16,"?","P","f",419.47,NA,3,56,7,24,"i","j",0.93634,1,"L","S","Switch",0,146,"V",1,"SL"
9,3,17,"?","P","f",302.65,NA,7,56,2,24,"c","j",0.70371,1,"L","S","Repeat",0,147,"V",0,"SL"
9,3,18,"?","N","d",2088.1,NA,8,56,3,24,"c","j",1.13495,1,"S","S","Switch",0,148,"V",1,"SS"
9,3,19,"?","P","f",2071.17,NA,7,24,4,56,"i","n",1.27117,1,"S","L","Switch",0,149,"V",1,"LS"
9,3,20,"?","N","d",1020.06,NA,9,24,2,56,"i","j",1.01791,1,"L","L","Switch",0,150,"V",1,"LL"
9,3,21,"?","P","f",719.59,NA,7,24,3,56,"i","n",1.10351,1,"L","S","Switch",0,151,"V",1,"SL"
9,3,22,"?","N","d",2021.12,NA,8,24,4,56,"i","j",1.03609,1,"S","L","Switch",0,152,"V",1,"LS"
9,3,23,"?","P","f",368.66,NA,3,56,8,24,"i","j",0.75371,1,"L","L","Switch",0,153,"V",1,"LL"
9,3,24,"?","N","d",2437.87,NA,7,24,2,56,"i","j",0.90349,1,"S","S","Switch",0,154,"V",1,"SS"
9,3,25,"?","P","f",502.8,NA,9,56,4,24,"c","j",1.13818,1,"L","S","Switch",0,155,"V",1,"SL"
9,3,26,"?","P","f",1754.28,NA,2,56,9,24,"i","j",1.0208,1,"S","S","Repeat",0,156,"V",0,"SS"
9,3,27,"?","P","f",2672.11,NA,8,24,3,56,"i","n",1.22029,1,"S","S","Repeat",0,157,"V",0,"SS"
9,3,28,"?","N","d",2388.43,NA,4,24,8,56,"c","n",0.8704,1,"S","L","Switch",0,158,"V",1,"LS"
9,3,29,"?","N","d",702.31,NA,8,56,2,24,"c","j",1.28794,1,"L","L","Repeat",0,159,"V",0,"LL"
9,3,30,"?","P","f",2755.55,NA,4,56,7,24,"i","j",0.91852,1,"S","S","Switch",0,160,"V",1,"SS"
9,3,31,"?","N","d",3172.46,NA,8,24,3,56,"i","j",1.33774,1,"S","S","Switch",0,161,"V",1,"SS"
9,3,32,"?","P","f",1470.35,NA,2,24,8,56,"c","n",0.70394,1,"L","S","Switch",0,162,"V",1,"SL"
9,3,33,"?","P","f",585.63,NA,3,56,9,24,"i","j",1.00361,1,"L","S","Repeat",0,163,"V",0,"SL"
9,3,34,"?","N","d",486.1,NA,7,56,4,24,"c","j",0.85318,1,"L","L","Switch",0,164,"V",1,"LL"
9,3,35,"?","P","f",452.79,NA,2,24,7,56,"c","n",0.65443,1,"L","S","Switch",0,165,"V",1,"SL"
9,3,36,"?","N","d",302.22,NA,7,56,3,24,"c","j",1.38712,1,"L","S","Switch",0,166,"V",1,"SL"
9,3,37,"?","P","f",419.46,NA,4,24,9,56,"c","n",0.75365,1,"L","L","Switch",0,167,"V",1,"LL"
9,3,38,"?","N","d",3439.63,NA,9,24,2,56,"i","j",1.35168,1,"S","L","Switch",0,168,"V",1,"LS"
9,3,39,"?","N","d",2471.57,NA,3,24,9,56,"c","n",1.22033,1,"S","S","Repeat",0,169,"V",0,"SS"
9,3,40,"?","P","f",1920.45,NA,2,24,7,56,"c","n",1.01974,1,"S","L","Switch",0,170,"V",1,"LS"
9,3,41,"?","P","f",1169.52,NA,7,24,4,56,"i","n",0.95353,1,"L","L","Repeat",0,171,"V",0,"LL"
9,3,42,"?","N","d",369.43,NA,2,56,9,24,"i","n",1.77147,1,"L","L","Switch",0,172,"V",1,"LL"
9,3,43,"?","P","f",4023.51,NA,4,24,9,56,"c","n",0.81961,1,"S","S","Switch",0,173,"V",1,"SS"
9,3,44,"?","N","d",619.41,NA,9,24,2,56,"i","j",1.2711,1,"L","S","Switch",0,174,"V",1,"SL"
9,3,45,"?","P","f",519.07,NA,3,56,9,24,"i","j",0.82063,1,"L","S","Switch",0,175,"V",1,"SL"
9,3,46,"?","N","d",1037.04,NA,9,24,2,56,"i","j",1.00425,1,"S","L","Switch",0,176,"V",1,"LS"
9,3,47,"?","P","f",1420.8,NA,4,24,7,56,"c","n",0.91996,1,"S","L","Switch",0,177,"V",1,"LS"
9,3,48,"?","N","d",2054.4,NA,3,56,8,24,"i","n",1.10371,1,"S","S","Switch",0,178,"V",1,"SS"
9,3,49,"?","P","f",486.2,NA,4,24,8,56,"c","n",0.71965,1,"L","L","Switch",0,179,"V",1,"LL"
9,3,50,"?","N","d",2988.89,NA,8,56,2,24,"c","j",1.40382,1,"S","S","Switch",0,180,"V",1,"SS"
9,3,51,"?","N","d",2105.31,NA,9,56,4,24,"c","j",0.65216,1,"S","L","Repeat",0,181,"V",0,"LS"
9,3,52,"?","N","d",602.3,NA,8,56,3,24,"c","j",0.80341,1,"L","S","Repeat",0,182,"V",0,"SL"
9,3,53,"?","N","d",1587.43,NA,4,24,7,56,"c","n",0.77015,1,"L","S","Repeat",0,183,"V",0,"SL"
9,3,54,"?","P","f",3022.62,NA,9,24,3,56,"i","n",0.95351,1,"S","L","Switch",0,184,"V",1,"LS"
9,3,55,"?","N","d",686.04,NA,4,24,8,56,"c","n",0.92013,1,"L","L","Switch",0,185,"V",1,"LL"
9,3,56,"?","P","f",402.94,NA,2,56,8,24,"i","j",0.85358,1,"L","L","Switch",0,186,"V",1,"LL"
9,3,57,"?","P","f",1504.33,NA,8,56,4,24,"c","j",0.65342,1,"S","L","Repeat",0,187,"V",0,"LS"
9,3,58,"?","N","d",2686.72,NA,2,56,7,24,"i","n",0.80341,1,"S","L","Switch",0,188,"V",1,"LS"
9,3,59,"?","P","f",1003.4,NA,4,24,9,56,"c","n",1.02041,1,"L","S","Switch",0,189,"V",1,"SL"
9,3,60,"?","P","f",1554.15,NA,3,56,7,24,"i","j",1.17086,1,"S","L","Repeat",0,190,"V",0,"LS"
9,3,61,"?","P","f",3756.28,NA,2,24,9,56,"c","n",0.97044,1,"S","S","Repeat",0,191,"V",0,"SS"
9,3,62,"?","N","d",1303.76,NA,4,56,7,24,"i","n",0.92001,1,"S","S","Switch",0,192,"V",1,"SS"
9,3,63,"?","P","f",2071.62,NA,8,56,2,24,"c","j",0.80334,1,"S","S","Switch",0,193,"V",1,"SS"
9,3,64,"?","N","d",1320.72,NA,4,56,9,24,"i","n",0.88491,1,"S","L","Switch",0,194,"V",1,"LS"
9,3,65,"?","N","d",1470.46,NA,8,56,3,24,"c","n",0.9869,0,"S","L","Repeat",0,195,"V",0,"LS"
9,4,2,"?","P","f",970.54,NA,3,24,7,56,"c","n",0.55273,1,"S","L","Repeat",0,197,"V",0,"LS"
9,4,3,"?","N","d",335.95,NA,2,56,8,24,"i","n",0.72067,1,"L","L","Switch",0,198,"V",1,"LL"
9,4,4,"?","N","d",1536.75,NA,8,24,3,56,"i","j",1.27025,1,"S","S","Repeat",0,199,"V",0,"SS"
9,4,5,"?","N","d",369.53,NA,7,24,4,56,"i","j",0.98698,1,"L","L","Repeat",0,200,"V",0,"LL"
9,4,6,"?","P","f",469.35,NA,2,24,7,56,"c","n",0.83659,1,"L","S","Switch",0,201,"V",1,"SL"
9,4,7,"?","P","f",369.26,NA,3,24,7,56,"c","n",0.51925,1,"L","L","Repeat",0,202,"V",0,"LL"
9,4,8,"?","N","d",1988.14,NA,4,24,7,56,"c","n",1.33794,1,"S","L","Switch",0,203,"V",1,"LS"
9,4,9,"?","N","d",435.91,NA,3,56,8,24,"i","n",0.73663,1,"L","L","Repeat",0,204,"V",0,"LL"
9,4,10,"?","P","f",369.38,NA,9,56,2,24,"c","j",0.88659,1,"L","L","Switch",0,205,"V",1,"LL"
9,4,11,"?","N","d",2071.21,NA,7,24,3,56,"i","j",1.20352,1,"S","S","Switch",0,206,"V",1,"SS"
9,4,12,"?","P","f",1670.8,NA,9,24,4,56,"i","n",0.63699,1,"S","L","Switch",0,207,"V",1,"LS"
9,4,13,"?","N","d",2038.05,NA,3,56,9,24,"i","n",0.81973,1,"S","L","Switch",0,208,"V",1,"LS"
9,4,14,"?","P","f",853.35,NA,4,24,8,56,"c","n",0.72055,1,"L","L","Switch",0,209,"V",1,"LL"
9,4,15,"?","P","f",786.65,NA,3,56,8,24,"i","j",0.81969,1,"L","S","Repeat",0,210,"V",0,"SL"
9,4,16,"?","P","f",2138.17,NA,9,24,2,56,"i","n",0.85375,1,"S","L","Repeat",0,211,"V",0,"LS"
9,4,17,"?","P","f",2071.56,NA,7,24,3,56,"i","n",0.68679,1,"S","S","Repeat",0,212,"V",0,"SS"
9,4,18,"?","N","d",319.57,NA,2,56,7,24,"i","n",0.91995,1,"L","S","Switch",0,213,"V",1,"SL"
9,4,19,"?","P","f",2221.53,NA,4,56,9,24,"i","j",1.28655,1,"S","L","Switch",0,214,"V",1,"LS"
9,4,20,"?","N","d",1987.92,NA,9,56,2,24,"c","j",1.42052,1,"L","S","Switch",0,215,"V",1,"SL"
9,4,21,"?","N","d",1637.4,NA,4,24,9,56,"c","n",0.82046,1,"S","S","Repeat",0,216,"V",0,"SS"
9,4,22,"?","N","d",1537.18,NA,9,56,3,24,"c","j",1.03513,1,"S","S","Repeat",0,217,"V",0,"SS"
9,4,23,"?","P","f",319.32,NA,9,24,4,56,"i","n",0.83627,1,"L","S","Switch",0,218,"V",1,"SL"
9,4,24,"?","P","f",1687.6,NA,3,56,9,24,"i","j",1.20396,1,"S","S","Repeat",0,219,"V",0,"SS"
9,4,25,"?","N","d",135.34,NA,2,24,9,56,"c","n",0.91987,1,"L","S","Switch",0,220,"V",1,"SL"
9,4,26,"?","P","f",1270.36,NA,7,56,4,24,"c","j",0.75363,1,"S","S","Switch",0,221,"V",1,"SS"
9,4,27,"?","N","d",2338.04,NA,2,56,8,24,"i","n",0.93643,1,"S","S","Switch",0,222,"V",1,"SS"
9,4,28,"?","P","f",1537.26,NA,3,24,9,56,"c","n",0.80235,1,"S","S","Switch",0,223,"V",1,"SS"
9,4,29,"?","N","d",285.72,NA,8,24,4,56,"i","j",0.92103,1,"L","S","Switch",0,224,"V",1,"SL"
9,4,30,"?","N","d",185.68,NA,9,56,3,24,"c","j",0.71988,1,"L","S","Repeat",0,225,"V",0,"SL"
9,4,31,"?","P","f",352.79,NA,2,56,7,24,"i","j",0.75355,1,"L","S","Switch",0,226,"V",1,"SL"
9,4,32,"?","N","d",300.52,NA,9,56,3,24,"c","j",0.88658,1,"L","S","Switch",0,227,"V",1,"SL"
9,4,33,"?","P","f",1970.97,NA,4,24,8,56,"c","n",0.58596,1,"S","L","Switch",0,228,"V",1,"LS"
9,4,34,"?","N","d",385.99,NA,2,24,7,56,"c","n",0.83714,1,"L","S","Switch",0,229,"V",1,"SL"
9,4,35,"?","P","f",219.35,NA,7,24,4,56,"i","n",1.40384,1,"L","S","Switch",0,230,"V",1,"SL"
9,4,36,"?","N","d",1420.68,NA,7,56,3,24,"c","n",1.50432,0,"S","L","Switch",0,231,"V",1,"LS"
9,4,37,"?","P","f",3222.51,NA,2,56,9,24,"i","j",0.77007,1,"S","L","Switch",1,232,"V",1,"LS"
9,4,38,"?","N","d",452.58,NA,4,56,8,24,"i","n",0.98631,1,"L","L","Switch",0,233,"V",1,"LL"
9,4,39,"?","P","f",452.71,NA,3,56,9,24,"i","j",0.90368,1,"L","L","Switch",0,234,"V",1,"LL"
9,4,40,"?","P","f",2021.06,NA,7,56,4,24,"c","j",0.65345,1,"S","S","Repeat",0,235,"V",0,"SS"
9,4,41,"?","N","d",402.79,NA,2,24,7,56,"c","n",0.73628,1,"L","L","Switch",0,236,"V",1,"LL"
9,4,42,"?","N","d",553.01,NA,4,24,8,56,"c","n",0.62019,1,"L","L","Repeat",0,237,"V",0,"LL"
9,4,43,"?","P","f",819.55,NA,8,56,2,24,"c","j",0.76961,1,"L","L","Switch",0,238,"V",1,"LL"
9,4,44,"?","P","f",919.56,NA,3,56,7,24,"i","j",1.28719,1,"L","S","Repeat",0,239,"V",0,"SL"
9,4,45,"?","P","f",2238.33,NA,2,56,9,24,"i","j",0.81991,1,"S","L","Repeat",0,240,"V",0,"LS"
9,4,46,"?","N","d",2287.61,NA,4,24,9,56,"c","n",1.58684,1,"S","S","Switch",0,241,"V",1,"SS"
9,4,47,"?","N","d",436.34,NA,8,56,3,24,"c","j",0.73669,1,"L","S","Repeat",0,242,"V",0,"SL"
9,4,48,"?","N","d",669.55,NA,4,56,7,24,"i","n",1.01982,1,"L","S","Repeat",0,243,"V",0,"SL"
9,4,49,"?","P","f",2972.46,NA,3,24,9,56,"c","n",0.9536,1,"S","L","Switch",0,244,"V",1,"LS"
9,4,50,"?","P","f",1570.83,NA,9,56,4,24,"c","j",0.63684,1,"S","L","Repeat",0,245,"V",0,"LS"
9,4,51,"?","N","d",1985.95,NA,2,56,7,24,"i","n",1.52127,1,"S","L","Switch",0,246,"V",1,"LS"
9,4,52,"?","N","d",2087.93,NA,9,56,4,24,"c","j",0.85322,1,"S","S","Repeat",0,247,"V",0,"SS"
9,4,53,"?","N","d",2637.96,NA,9,56,3,24,"c","j",0.6201,1,"S","L","Repeat",0,248,"V",0,"LS"
9,4,54,"?","P","f",2705.24,NA,4,56,9,24,"i","j",0.603,1,"S","L","Switch",0,249,"V",1,"LS"
9,4,55,"?","N","d",936.63,NA,7,24,2,56,"i","j",0.91859,1,"L","L","Switch",0,250,"V",1,"LL"
9,4,56,"?","P","f",719.55,NA,4,56,9,24,"i","j",1.00342,1,"L","L","Switch",0,251,"V",1,"LL"
9,4,57,"?","N","d",2035.8,NA,8,56,3,24,"c","j",0.71992,1,"L","L","Switch",0,252,"V",1,"LL"
9,4,58,"?","P","f",819.55,NA,2,24,7,56,"c","n",0.71917,1,"L","S","Switch",0,253,"V",1,"SL"
9,4,59,"?","N","d",3305.85,NA,8,24,3,56,"i","j",1.22091,1,"S","S","Switch",0,254,"V",1,"SS"
9,4,60,"?","P","f",1971.42,NA,9,24,2,56,"i","n",0.78655,1,"S","S","Switch",0,255,"V",1,"SS"
9,4,61,"?","P","f",2086.03,NA,7,56,4,24,"c","j",0.58684,1,"S","L","Repeat",0,256,"V",0,"LS"
9,4,62,"?","P","f",2270.9,NA,8,24,3,56,"i","n",0.75362,1,"S","S","Repeat",0,257,"V",0,"SS"
9,4,63,"?","P","f",1971.2,NA,9,56,2,24,"c","j",0.46937,1,"L","L","Repeat",0,258,"V",0,"LL"
9,4,64,"?","P","f",1036.98,NA,8,24,3,56,"i","n",0.75403,1,"L","L","Repeat",0,259,"V",0,"LL"
9,4,65,"?","N","d",2922.22,NA,4,24,9,56,"c","n",0.9869,1,"S","S","Switch",0,260,"V",1,"SS"
9,5,2,"?","P","f",1420.9,NA,4,24,8,56,"c","n",0.5367,1,"S","S","Repeat",0,262,"V",0,"SS"
9,5,3,"?","N","d",1354,NA,8,24,2,56,"i","j",1.00395,1,"S","S","Switch",0,263,"V",1,"SS"
9,5,4,"?","N","d",302.65,NA,4,24,8,56,"c","n",0.72019,1,"L","S","Repeat",0,264,"V",0,"SL"
9,5,5,"?","N","d",269.27,NA,3,56,9,24,"i","j",0.73476,0,"L","S","Repeat",0,265,"V",0,"SL"
9,5,6,"?","N","d",369.33,NA,9,24,2,56,"i","j",0.80258,1,"L","L","Repeat",1,266,"V",0,"LL"
9,5,7,"?","N","d",269.26,NA,8,24,3,56,"i","j",0.88516,1,"L","L","Repeat",0,267,"V",0,"LL"
9,5,8,"?","N","d",3222.42,NA,4,24,8,56,"c","n",0.73671,1,"S","L","Repeat",0,268,"V",0,"LS"
9,5,9,"?","P","f",1771.03,NA,3,24,9,56,"c","n",0.77054,1,"L","S","Switch",0,269,"V",1,"SL"
9,5,10,"?","P","f",3172.53,NA,8,24,2,56,"i","n",1.07,1,"S","S","Repeat",0,270,"V",0,"SS"
9,5,11,"?","N","d",419.2,NA,3,56,9,24,"i","n",0.61806,1,"L","L","Switch",0,271,"V",1,"LL"
9,5,12,"?","N","d",1554.09,NA,2,24,9,56,"c","n",0.55304,1,"S","L","Repeat",0,272,"V",0,"LS"
9,5,13,"?","P","f",2137.76,NA,7,56,3,24,"c","j",0.53612,1,"S","L","Switch",0,273,"V",1,"LS"
9,5,14,"?","P","f",402.69,NA,8,56,2,24,"c","j",0.55287,1,"L","L","Repeat",0,274,"V",0,"LL"
9,5,15,"?","N","d",302.04,NA,9,56,4,24,"c","j",1.05336,1,"L","L","Switch",0,275,"V",1,"LL"
9,5,16,"?","N","d",419.6,NA,3,56,7,24,"i","n",0.83657,1,"L","L","Repeat",0,276,"V",0,"LL"
9,5,17,"?","P","f",319.48,NA,8,24,4,56,"i","n",0.97021,1,"L","S","Switch",0,277,"V",1,"SL"
9,5,18,"?","P","f",1518.65,NA,3,24,9,56,"c","n",0.56942,1,"S","S","Repeat",0,278,"V",0,"SS"
9,5,19,"?","P","f",336.15,NA,4,24,9,56,"c","n",0.46932,1,"L","S","Repeat",0,279,"V",0,"SL"
9,5,20,"?","N","d",2671.52,NA,2,56,7,24,"i","n",0.67018,1,"S","L","Switch",0,280,"V",1,"LS"
9,5,21,"?","N","d",336.01,NA,3,24,8,56,"c","n",0.68627,1,"L","L","Repeat",0,281,"V",0,"LL"
9,5,22,"?","P","f",1153.97,NA,2,56,7,24,"i","j",0.48655,1,"S","L","Switch",0,282,"V",1,"LS"
9,5,23,"?","N","d",1337.27,NA,4,56,8,24,"i","n",1.17085,1,"S","S","Switch",0,283,"V",1,"SS"
9,5,24,"?","P","f",452.31,NA,3,56,9,24,"i","j",0.50282,1,"L","L","Switch",0,284,"V",1,"LL"
9,5,25,"?","N","d",402.77,NA,8,56,2,24,"c","j",0.73709,1,"L","L","Switch",0,285,"V",1,"LL"
9,5,26,"?","P","f",250.38,NA,9,56,3,24,"c","j",0.78639,1,"L","S","Switch",0,286,"V",1,"SL"
9,5,27,"?","N","d",636.26,NA,8,24,4,56,"i","j",1.03698,1,"S","L","Switch",0,287,"V",1,"LS"
9,5,28,"?","N","d",19.07,NA,2,24,8,56,"c","n",0.82007,1,"L","L","Repeat",0,288,"V",0,"LL"
9,5,29,"?","N","d",1505.19,NA,3,56,9,24,"i","n",0.70341,1,"S","L","Repeat",0,289,"V",0,"LS"
9,5,30,"?","P","f",2038.16,NA,8,56,2,24,"c","j",0.60153,1,"S","S","Switch",0,290,"V",1,"SS"
9,5,31,"?","P","f",1270.24,NA,3,56,7,24,"i","j",1.16989,1,"S","S","Repeat",0,291,"V",0,"SS"
9,5,32,"?","N","d",2321.46,NA,8,24,2,56,"i","j",1.05111,1,"S","L","Switch",0,292,"V",1,"LS"
9,5,33,"?","N","d",1820.42,NA,8,56,4,24,"c","j",0.83604,1,"S","S","Repeat",0,293,"V",0,"SS"
9,5,34,"?","P","f",1237.08,NA,2,56,9,24,"i","j",0.58678,1,"S","S","Switch",0,294,"V",1,"SS"
9,5,35,"?","N","d",269.35,NA,4,56,7,24,"i","n",0.76938,1,"L","S","Switch",0,295,"V",1,"SL"
9,5,36,"?","P","f",335.69,NA,8,24,2,56,"i","n",0.50357,1,"L","L","Switch",0,296,"V",1,"LL"
9,5,37,"?","N","d",753.04,NA,8,56,4,24,"c","j",0.75369,1,"S","S","Switch",0,297,"V",1,"SS"
9,5,38,"?","N","d",286.01,NA,3,24,8,56,"c","n",0.9039,1,"L","L","Repeat",0,298,"V",0,"LL"
9,5,39,"?","P","f",1904.46,NA,9,56,2,24,"c","j",0.38582,1,"S","L","Switch",0,299,"V",1,"LS"
9,5,40,"?","N","d",351.92,NA,3,24,9,56,"c","n",0.58684,1,"L","L","Switch",0,300,"V",1,"LL"
9,5,41,"?","P","f",368.28,NA,4,56,9,24,"i","j",0.68606,1,"L","L","Switch",0,301,"V",1,"LL"
9,5,42,"?","P","f",351.85,NA,7,24,2,56,"i","n",0.937,1,"L","S","Repeat",0,302,"V",0,"SL"
9,5,43,"?","P","f",2154.26,NA,9,24,4,56,"i","n",0.5862,1,"S","S","Repeat",0,303,"V",0,"SS"
9,5,44,"?","N","d",1518.6,NA,8,56,3,24,"c","j",0.50099,1,"S","L","Switch",0,304,"V",1,"LS"
9,5,45,"?","N","d",886.1,NA,8,24,2,56,"i","j",1.10311,1,"L","S","Repeat",0,305,"V",0,"SL"
9,5,46,"?","P","f",469.14,NA,9,56,3,24,"c","j",0.66954,1,"L","S","Switch",0,306,"V",1,"SL"
9,5,47,"?","N","d",335.95,NA,2,24,9,56,"c","n",0.78619,1,"L","S","Switch",0,307,"V",1,"SL"
9,5,48,"?","P","f",352.44,NA,8,24,4,56,"i","n",0.48613,1,"L","L","Switch",0,308,"V",1,"LL"
9,5,49,"?","N","d",318.97,NA,7,56,3,24,"c","j",0.68624,1,"L","S","Switch",0,309,"V",1,"SL"
9,5,50,"?","P","f",335.86,NA,2,56,9,24,"i","j",0.53645,1,"L","S","Switch",0,310,"V",1,"SL"
9,5,51,"?","N","d",1904.66,NA,3,24,7,56,"c","n",0.60345,1,"S","L","Switch",0,311,"V",1,"LS"
9,5,52,"?","N","d",352.47,NA,7,24,2,56,"i","j",0.83652,1,"L","S","Repeat",0,312,"V",0,"SL"
9,5,53,"?","N","d",1671.72,NA,3,56,9,24,"i","n",0.71883,1,"S","S","Repeat",0,313,"V",0,"SS"
9,5,54,"?","N","d",319.37,NA,8,56,2,24,"c","j",0.72035,1,"L","S","Repeat",0,314,"V",0,"SL"
9,5,55,"?","N","d",385.45,NA,8,24,4,56,"i","j",0.83693,1,"L","S","Repeat",0,315,"V",0,"SL"
9,5,56,"?","N","d",2202.87,NA,3,24,9,56,"c","n",0.60316,1,"S","L","Repeat",0,316,"V",0,"LS"
9,5,57,"?","P","f",2939.06,NA,2,24,7,56,"c","n",1.01995,1,"S","S","Switch",0,317,"V",1,"SS"
9,5,58,"?","N","d",386.14,NA,7,56,3,24,"c","j",0.80304,1,"L","L","Switch",0,318,"V",1,"LL"
9,5,59,"?","P","f",2286.27,NA,9,56,4,24,"c","j",0.80332,1,"S","S","Switch",0,319,"V",1,"SS"
9,5,60,"?","P","f",1685.39,NA,7,24,2,56,"i","n",0.98746,1,"S","L","Repeat",0,320,"V",0,"LS"
9,5,61,"?","N","d",1670.95,NA,3,24,8,56,"c","n",1.23668,1,"S","S","Switch",0,321,"V",1,"SS"
9,5,62,"?","P","f",720.18,NA,8,24,4,56,"i","n",0.55135,1,"S","L","Switch",0,322,"V",1,"LS"
9,5,63,"?","P","f",819.88,NA,2,56,7,24,"i","j",1.03629,1,"S","S","Repeat",0,323,"V",0,"SS"
9,5,64,"?","P","f",636.31,NA,3,56,7,24,"i","j",0.55266,1,"S","L","Repeat",0,324,"V",0,"LS"
9,5,65,"?","N","d",803.34,NA,8,56,2,24,"c","j",0.58629,1,"S","L","Switch",0,325,"V",1,"LS"
9,6,2,"?","P","f",436.22,NA,9,56,3,24,"c","j",0.46925,1,"S","L","Repeat",0,327,"V",0,"LS"
9,6,3,"?","P","f",335.9,NA,9,24,2,56,"i","n",0.60257,1,"L","S","Repeat",0,328,"V",0,"SL"
9,6,4,"?","N","d",252.66,NA,3,24,9,56,"c","n",0.50294,1,"L","L","Switch",0,329,"V",1,"LL"
9,6,5,"?","N","d",1287.12,NA,9,24,4,56,"i","j",0.95343,1,"S","L","Repeat",0,330,"V",0,"LS"
9,6,6,"?","N","d",1186.67,NA,2,24,7,56,"c","n",0.68609,1,"L","L","Repeat",0,331,"V",0,"LL"
9,6,7,"?","N","d",2071.26,NA,4,24,8,56,"c","n",0.80371,1,"S","L","Repeat",0,332,"V",0,"LS"
9,6,8,"?","P","f",269.12,NA,3,56,8,24,"i","j",0.55277,1,"L","S","Switch",0,333,"V",1,"SL"
9,6,9,"?","P","f",152.22,NA,8,24,4,56,"i","n",0.78679,1,"L","L","Repeat",0,334,"V",0,"LL"
9,6,10,"?","P","f",286.21,NA,3,24,9,56,"c","n",0.60316,1,"L","L","Repeat",0,335,"V",0,"LL"
9,6,11,"?","N","d",853.26,NA,8,56,4,24,"c","j",0.73621,1,"L","L","Switch",0,336,"V",1,"LL"
9,6,12,"?","P","f",1954.64,NA,2,24,8,56,"c","n",0.57033,1,"S","S","Switch",0,337,"V",1,"SS"
9,6,13,"?","N","d",319.1,NA,8,24,3,56,"i","j",0.65344,1,"L","L","Switch",0,338,"V",1,"LL"
9,6,14,"?","P","f",1153.87,NA,4,56,7,24,"i","j",0.4365,1,"L","L","Switch",0,339,"V",1,"LL"
