"subj_idx","block","trial","task_cue","task","choice_resp","choiceRT","choice_acc","topnum","topsize","botnum","botsize","cong","task_resp","rt","response","RSI","CSI","altRep","E1","trialcumul","condition","sr","intervals"
2,1,2,"P","P","d",1102.95,1,3,56,8,24,"i","j",1.32016,1,"S","S","Repeat",0,2,"E",0,"SS"
2,1,3,"N","N","f",1220.36,0,9,56,2,24,"c","j",2.08781,1,"S","S","Switch",0,3,"E",1,"SS"
2,1,4,"N","N","f",853.57,0,8,24,4,56,"i","j",2.78887,1,"L","S","Repeat",0,4,"E",0,"SL"
2,1,5,"N","N","f",2288.13,0,2,24,7,56,"c","n",1.95501,1,"S","S","Repeat",0,5,"E",0,"SS"
2,1,6,"N","N","f",1820.56,0,8,24,4,56,"i","j",2.25456,1,"S","S","Repeat",0,6,"E",0,"SS"
2,1,7,"N","N","f",1319.73,0,3,24,8,56,"c","n",1.88865,1,"S","L","Repeat",0,7,"E",0,"LS"
2,1,8,"N","N","f",1203.55,0,8,56,4,24,"c","j",3.20642,1,"S","S","Repeat",0,8,"E",0,"SS"
2,1,9,"P","P","d",2071.31,1,2,24,9,56,"c","n",2.47163,1,"L","L","Switch",0,9,"E",1,"LL"
2,1,10,"N","N","f",1752.54,0,4,56,7,24,"i","n",1.73809,1,"S","S","Switch",0,10,"E",1,"SS"
2,1,11,"P","P","d",1420.52,1,2,24,9,56,"c","n",3.35653,1,"S","S","Switch",0,11,"E",1,"SS"
2,1,12,"P","P","d",2087.42,1,9,24,4,56,"i","n",1.48696,1,"S","L","Repeat",0,12,"E",0,"LS"
2,1,13,"N","N","f",853.03,0,9,56,3,24,"c","j",1.13734,1,"L","S","Switch",0,13,"E",1,"SL"
2,1,14,"N","N","f",819.86,0,2,56,9,24,"i","j",0.76922,0,"L","S","Repeat",0,14,"E",0,"SL"
2,1,15,"N","N","f",1720.75,0,8,24,4,56,"i","j",2.07092,1,"L","L","Repeat",1,15,"E",0,"LL"
2,1,16,"P","P","d",1003.89,1,3,24,7,56,"c","n",1.87171,1,"L","S","Switch",0,16,"E",1,"SL"
2,1,17,"N","N","f",1086.93,0,4,56,8,24,"i","n",1.23497,1,"L","S","Switch",0,17,"E",1,"SL"
2,1,18,"P","P","d",770.03,1,3,56,7,24,"i","j",2.2882,1,"L","L","Switch",0,18,"E",1,"LL"
2,1,19,"P","P","d",1704.09,1,7,56,2,24,"c","j",2.68947,1,"L","L","Repeat",0,19,"E",0,"LL"
2,1,20,"P","P","d",1487.38,1,3,24,9,56,"c","n",1.90433,1,"S","S","Repeat",0,20,"E",0,"SS"
2,1,21,"P","P","d",1287.26,1,8,56,2,24,"c","j",1.13711,1,"S","L","Repeat",0,21,"E",0,"LS"
2,1,22,"N","N","f",936.77,0,9,24,3,56,"i","j",1.20418,1,"S","L","Switch",0,22,"E",1,"LS"
2,1,23,"N","N","f",1187.03,0,2,24,9,56,"c","n",2.03802,1,"L","L","Repeat",0,23,"E",0,"LL"
2,1,24,"P","P","d",1253.97,1,9,24,4,56,"i","n",1.50386,1,"S","L","Switch",0,24,"E",1,"LS"
2,1,25,"P","P","d",8078.11,1,9,24,2,56,"i","n",1.73768,1,"L","L","Repeat",0,25,"E",0,"LL"
2,1,27,"P","P","d",4924.18,1,7,24,4,56,"i","n",1.23758,1,"L","S","Repeat",0,27,"E",0,"SL"
2,1,28,"N","N","f",1587.54,0,7,24,3,56,"i","n",2.6864,0,"S","S","Switch",0,28,"E",1,"SS"
2,1,29,"N","N","f",2204.06,0,4,56,9,24,"i","n",1.28729,1,"S","L","Repeat",1,29,"E",0,"LS"
2,1,30,"P","P","d",920.17,1,7,56,2,24,"c","j",1.58755,1,"S","L","Switch",0,30,"E",1,"LS"
2,1,31,"N","N","f",3857.38,0,9,56,4,24,"c","j",1.33779,1,"S","L","Switch",0,31,"E",1,"LS"
2,1,32,"N","N","f",786.37,0,2,24,9,56,"c","n",1.38782,1,"L","S","Repeat",0,32,"E",0,"SL"
2,1,33,"N","N","f",936.42,0,8,24,4,56,"i","j",1.37004,1,"S","L","Repeat",0,33,"E",0,"LS"
2,1,34,"P","P","d",603.03,1,7,56,3,24,"c","j",1.48834,1,"L","L","Switch",0,34,"E",1,"LL"
2,1,35,"N","N","f",1453.83,0,4,24,9,56,"c","n",1.82112,1,"S","L","Switch",0,35,"E",1,"LS"
2,1,36,"N","N","f",852.62,0,7,56,3,24,"c","j",2.45514,1,"S","L","Repeat",0,36,"E",0,"LS"
2,1,37,"N","N","f",1236.83,0,9,56,2,24,"c","j",1.40385,1,"L","L","Repeat",0,37,"E",0,"LL"
2,1,38,"P","P","d",686.53,1,8,24,4,56,"i","n",0.91987,1,"L","S","Switch",0,38,"E",1,"SL"
2,1,39,"N","N","f",902.99,0,9,24,3,56,"i","j",2.43911,1,"L","S","Switch",0,39,"E",1,"SL"
2,1,40,"P","P","d",803.47,1,4,56,9,24,"i","j",1.27142,1,"S","L","Switch",0,40,"E",1,"LS"
2,1,41,"N","N","f",752.75,0,3,24,9,56,"c","n",2.13874,1,"S","S","Switch",0,41,"E",1,"SS"
2,1,42,"P","P","d",1387.63,1,9,56,4,24,"c","j",2.07164,1,"S","S","Switch",0,42,"E",1,"SS"
2,1,43,"N","N","f",769.97,0,2,24,8,56,"c","n",0.9703,1,"L","S","Switch",0,43,"E",1,"SL"
2,1,44,"P","P","d",870.08,1,3,56,8,24,"i","j",1.8375,1,"L","S","Switch",0,44,"E",1,"SL"
2,1,45,"P","P","d",769.82,1,8,56,2,24,"c","j",1.00389,1,"L","S","Repeat",0,45,"E",0,"SL"
2,1,46,"P","P","d",569.49,1,8,24,4,56,"i","n",0.67027,1,"S","S","Repeat",0,46,"E",0,"SS"
2,1,47,"P","P","d",469.51,1,9,56,2,24,"c","j",0.63648,1,"S","S","Repeat",0,47,"E",0,"SS"
2,1,48,"P","P","d",452.94,1,3,24,7,56,"c","n",0.60295,1,"L","L","Repeat",0,48,"E",0,"LL"
2,1,49,"P","P","d",535.84,1,2,24,7,56,"c","n",0.51976,1,"S","L","Repeat",0,49,"E",0,"LS"
2,1,50,"N","N","f",636.8,0,8,56,3,24,"c","j",0.81999,1,"L","L","Switch",0,50,"E",1,"LL"
2,1,51,"P","P","d",452.79,1,9,56,2,24,"c","j",0.67024,1,"L","S","Switch",0,51,"E",1,"SL"
2,1,52,"N","N","f",770,0,9,24,3,56,"i","j",0.81996,1,"L","L","Switch",0,52,"E",1,"LL"
2,1,53,"P","P","d",953.08,1,2,56,8,24,"i","j",0.60116,1,"S","S","Switch",0,53,"E",1,"SS"
2,1,54,"P","P","d",669.77,1,3,56,7,24,"i","j",0.82056,1,"L","S","Repeat",0,54,"E",0,"SL"
2,1,55,"N","N","f",702.95,0,4,24,9,56,"c","n",2.33865,1,"L","L","Switch",0,55,"E",1,"LL"
2,1,56,"P","P","d",1037.07,1,9,24,3,56,"i","n",1.50401,1,"S","S","Switch",0,56,"E",1,"SS"
2,1,57,"N","N","f",567.81,0,2,56,9,24,"i","n",1.48511,1,"L","L","Switch",0,57,"E",1,"LL"
2,1,58,"N","N","f",636.4,0,3,56,8,24,"i","n",0.68473,1,"S","S","Repeat",0,58,"E",0,"SS"
2,1,59,"P","P","d",552.94,1,9,24,4,56,"i","n",0.9201,1,"L","L","Switch",0,59,"E",1,"LL"
2,1,60,"P","P","d",1169.96,1,3,56,9,24,"i","j",0.53621,1,"L","L","Repeat",0,60,"E",0,"LL"
2,1,61,"N","N","f",770.29,0,4,56,7,24,"i","n",0.85314,1,"S","L","Switch",0,61,"E",1,"LS"
2,1,62,"N","N","f",3706.07,0,2,56,7,24,"i","n",1.32032,1,"L","L","Repeat",0,62,"E",0,"LL"
2,1,63,"N","N","f",536.29,0,9,56,3,24,"c","j",1.93794,1,"L","S","Repeat",0,63,"E",0,"SL"
2,1,64,"P","P","d",469.75,1,2,24,9,56,"c","n",0.76982,1,"S","L","Switch",0,64,"E",1,"LS"
2,1,65,"P","P","d",570.26,1,4,56,7,24,"i","j",0.50137,1,"S","L","Repeat",0,65,"E",0,"LS"
2,2,2,"P","P","d",1471.39,1,4,24,8,56,"c","n",0.753,1,"S","L","Switch",0,67,"E",1,"LS"
2,2,3,"N","N","f",968.33,0,8,56,3,24,"c","j",1.67094,1,"L","L","Switch",0,68,"E",1,"LL"
2,2,4,"N","N","f",670.11,0,2,24,7,56,"c","n",2.00504,1,"S","L","Repeat",0,69,"E",0,"LS"
2,2,5,"P","P","d",869.82,1,4,24,8,56,"c","n",1.23695,1,"S","S","Switch",0,70,"E",1,"SS"
2,2,6,"P","P","d",535.81,1,3,56,8,24,"i","j",1.82119,1,"L","L","Repeat",0,71,"E",0,"LL"
2,2,7,"N","N","f",369.33,0,9,56,4,24,"c","j",0.61951,1,"L","S","Switch",0,72,"E",1,"SL"
2,2,8,"P","P","d",753.17,1,7,24,3,56,"i","n",1.82099,1,"S","L","Switch",0,73,"E",1,"LS"
2,2,9,"P","P","d",3522.71,1,4,24,8,56,"c","n",1.07074,1,"L","L","Repeat",0,74,"E",0,"LL"
2,2,10,"N","N","f",1337.12,0,3,56,9,24,"i","n",1.42145,1,"S","S","Switch",0,75,"E",1,"SS"
2,2,11,"P","P","d",1020.09,1,8,24,2,56,"i","n",1.31875,1,"S","S","Switch",0,76,"E",1,"SS"
2,2,12,"P","P","d",1053.49,1,4,56,8,24,"i","j",1.30229,1,"S","L","Repeat",0,77,"E",0,"LS"
2,2,13,"N","N","f",619.58,0,3,24,7,56,"c","n",0.8536,1,"L","L","Switch",0,78,"E",1,"LL"
2,2,14,"P","P","d",986.8,1,7,24,2,56,"i","n",1.15162,1,"L","S","Switch",0,79,"E",1,"SL"
2,2,15,"P","P","d",1020.17,1,4,24,7,56,"c","n",1.01981,1,"S","S","Repeat",0,80,"E",0,"SS"
2,2,16,"P","P","d",1287.16,1,8,56,2,24,"c","j",0.75111,1,"L","S","Repeat",0,81,"E",0,"SL"
2,2,17,"P","P","d",2171.3,1,3,24,7,56,"c","n",1.45484,1,"L","S","Repeat",0,82,"E",0,"SL"
2,2,18,"N","N","f",969.32,0,9,24,2,56,"i","j",1.57123,1,"L","L","Switch",0,83,"E",1,"LL"
2,2,19,"N","N","f",636.34,0,3,56,8,24,"i","n",0.73654,1,"S","L","Repeat",0,84,"E",0,"LS"
2,2,20,"P","P","d",903.55,1,4,56,8,24,"i","j",1.42086,1,"L","S","Switch",0,85,"E",1,"SL"
2,2,21,"N","N","f",619.92,0,7,56,2,24,"c","j",1.30389,1,"S","L","Switch",0,86,"E",1,"LS"
2,2,22,"N","N","f",669.98,0,9,24,3,56,"i","j",1.73818,1,"S","S","Repeat",0,87,"E",0,"SS"
2,2,23,"N","N","f",652.6,0,2,24,7,56,"c","n",0.65254,1,"L","S","Repeat",0,88,"E",0,"SL"
2,2,24,"P","P","d",403.05,1,4,24,9,56,"c","n",0.65229,1,"L","S","Switch",0,89,"E",1,"SL"
2,2,25,"N","N","f",585.92,0,3,24,7,56,"c","n",1.78613,1,"S","L","Switch",0,90,"E",1,"LS"
2,2,26,"N","N","f",636.56,0,8,56,4,24,"c","j",0.65304,1,"S","L","Repeat",0,91,"E",0,"LS"
2,2,27,"N","N","f",1152.9,0,9,24,2,56,"i","j",0.72025,1,"L","S","Repeat",0,92,"E",0,"SL"
2,2,28,"P","P","d",669.79,1,8,24,4,56,"i","n",0.48682,1,"L","L","Switch",0,93,"E",1,"LL"
2,2,29,"P","P","d",502.48,1,8,56,2,24,"c","j",0.58649,1,"L","L","Repeat",0,94,"E",0,"LL"
2,2,30,"P","P","d",970.99,1,4,56,9,24,"i","j",0.68684,1,"S","S","Repeat",0,95,"E",0,"SS"
2,2,31,"P","P","d",1070.04,1,9,24,3,56,"i","n",0.67024,1,"S","S","Repeat",0,96,"E",0,"SS"
2,2,32,"N","N","f",1086.92,0,9,24,2,56,"i","j",0.80362,1,"L","S","Switch",0,97,"E",1,"SL"
2,2,33,"N","N","f",1353.75,0,3,56,7,24,"i","n",1.10366,1,"L","S","Repeat",0,98,"E",0,"SL"
2,2,34,"P","P","d",719.99,1,8,56,2,24,"c","j",0.50094,1,"S","S","Switch",0,99,"E",1,"SS"
2,2,35,"N","N","f",352.76,0,3,24,7,56,"c","n",1.12087,1,"L","S","Switch",0,100,"E",1,"SL"
2,2,36,"N","N","f",619.32,0,4,24,9,56,"c","n",1.335,1,"L","L","Repeat",0,101,"E",0,"LL"
2,2,37,"P","P","d",4657.11,1,3,56,8,24,"i","j",3.97395,1,"S","S","Switch",0,102,"E",1,"SS"
2,2,38,"N","N","f",1053.69,0,8,24,4,56,"i","j",1.43677,1,"S","L","Switch",0,103,"E",1,"LS"
2,2,39,"P","P","d",937.19,1,3,56,7,24,"i","j",1.7036,1,"S","L","Switch",0,104,"E",1,"LS"
2,2,40,"N","N","f",1804.57,0,2,24,8,56,"c","n",1.57084,1,"S","S","Switch",0,105,"E",1,"SS"
2,2,41,"N","N","f",836.45,0,9,56,4,24,"c","j",1.03697,1,"S","S","Repeat",0,106,"E",0,"SS"
2,2,42,"P","P","d",1720.84,1,3,24,9,56,"c","n",1.4706,1,"L","L","Switch",0,107,"E",1,"LL"
2,2,43,"P","P","d",869.46,1,2,56,7,24,"i","j",0.67021,1,"L","S","Repeat",0,108,"E",0,"SL"
2,2,44,"N","N","f",853.23,0,3,56,9,24,"i","j",1.43768,0,"L","S","Switch",0,109,"E",1,"SL"
2,2,45,"N","N","d",803.05,0,9,56,2,24,"c","j",2.38761,1,"L","S","Repeat",1,110,"E",0,"SL"
2,2,46,"N","N","f",953.39,0,3,56,7,24,"i","n",1.63798,1,"S","S","Repeat",0,111,"E",0,"SS"
2,2,47,"N","N","f",5058.08,0,7,56,4,24,"c","j",1.80292,1,"L","L","Repeat",0,112,"E",0,"LL"
2,2,48,"N","N","f",4875.08,0,9,24,3,56,"i","j",3.62365,1,"L","L","Repeat",0,113,"E",0,"LL"
2,2,49,"N","N","f",603.87,0,4,24,7,56,"c","n",4.30729,1,"S","S","Repeat",0,114,"E",0,"SS"
2,2,50,"P","P","d",903.38,1,8,56,2,24,"c","j",0.53565,1,"S","L","Switch",0,115,"E",1,"LS"
2,2,51,"P","P","d",836.74,1,9,24,4,56,"i","n",0.92084,1,"S","L","Repeat",0,116,"E",0,"LS"
2,2,52,"P","P","d",1368.62,1,9,24,2,56,"i","n",0.71999,1,"L","S","Repeat",0,117,"E",0,"SL"
2,2,53,"N","N","f",636.37,0,8,56,3,24,"c","j",0.67007,1,"S","S","Switch",0,118,"E",1,"SS"
2,2,54,"N","N","f",569.79,0,8,24,2,56,"i","j",1.43812,1,"S","L","Repeat",0,119,"E",0,"LS"
2,2,55,"P","P","d",853.76,1,7,56,4,24,"c","j",0.85152,1,"L","S","Switch",0,120,"E",1,"SL"
2,2,56,"N","N","f",586.56,0,3,56,8,24,"i","n",0.61931,1,"S","L","Switch",0,121,"E",1,"LS"
2,2,57,"P","P","d",1153.81,1,8,56,4,24,"c","j",1.82061,1,"L","L","Switch",0,122,"E",1,"LL"
2,2,58,"N","N","f",536.39,0,9,24,2,56,"i","j",0.63479,1,"S","S","Switch",0,123,"E",1,"SS"
2,2,59,"N","N","f",4123.91,0,3,56,7,24,"i","n",1.53667,1,"L","L","Repeat",0,124,"E",0,"LL"
2,2,60,"P","P","d",3439.72,1,4,56,9,24,"i","j",0.50341,1,"L","L","Switch",0,125,"E",1,"LL"
2,2,61,"P","P","d",518.89,1,3,24,8,56,"c","n",0.56978,1,"S","L","Repeat",0,126,"E",0,"LS"
2,2,62,"P","P","d",385.1,1,7,24,4,56,"i","n",0.65331,1,"L","L","Repeat",0,127,"E",0,"LL"
2,2,63,"P","P","d",703.19,1,8,56,3,24,"c","j",0.65384,1,"S","L","Repeat",0,128,"E",0,"LS"
2,2,64,"P","P","d",636.83,1,7,56,2,24,"c","j",0.61947,1,"S","S","Repeat",0,129,"E",0,"SS"
2,2,65,"N","N","d",486.58,0,4,56,7,24,"i","n",1.68778,1,"L","L","Switch",0,130,"E",1,"LL"
2,3,2,"N","N","f",1854.51,0,7,24,2,56,"i","j",1.83727,1,"S","L","Switch",0,132,"E",1,"LS"
2,3,3,"N","N","f",1237.25,0,4,24,9,56,"c","j",3.29011,0,"S","S","Repeat",0,133,"E",0,"SS"
2,3,4,"N","N","f",1920.88,0,3,24,9,56,"c","n",1.37129,1,"L","S","Repeat",1,134,"E",0,"SL"
2,3,5,"N","N","f",536.26,0,9,24,2,56,"i","j",2.05242,1,"S","L","Repeat",0,135,"E",0,"LS"
2,3,6,"N","N","d",1370.71,0,8,56,3,24,"c","j",1.57107,1,"S","L","Repeat",0,136,"E",0,"LS"
2,3,7,"N","N","f",586.3,0,8,24,4,56,"i","j",1.33693,1,"L","L","Repeat",0,137,"E",0,"LL"
2,3,8,"N","N","f",719.68,0,2,56,8,24,"i","n",0.63598,1,"S","L","Repeat",0,138,"E",0,"LS"
2,3,9,"P","P","d",903.44,1,3,24,8,56,"c","n",1.23764,1,"L","L","Switch",0,139,"E",1,"LL"
2,3,10,"N","N","f",2638.3,0,4,24,7,56,"c","n",0.75371,1,"L","L","Switch",0,140,"E",1,"LL"
2,3,11,"P","P","d",3456.26,1,3,56,7,24,"i","j",1.23726,1,"S","L","Switch",0,141,"E",1,"LS"
2,3,12,"P","P","d",1236.14,1,9,56,4,24,"c","j",1.60459,1,"L","S","Repeat",0,142,"E",0,"SL"
2,3,13,"N","N","f",953.46,0,8,56,3,24,"c","j",1.03671,1,"S","L","Switch",0,143,"E",1,"LS"
2,3,14,"P","P","d",1254.08,1,9,24,4,56,"i","n",0.7859,1,"L","S","Switch",0,144,"E",1,"SL"
2,3,15,"P","P","d",703.27,1,2,56,8,24,"i","j",0.63668,1,"S","S","Repeat",0,145,"E",0,"SS"
2,3,16,"P","P","d",820.06,1,3,24,7,56,"c","n",0.58673,1,"L","L","Repeat",0,146,"E",0,"LL"
2,3,17,"N","N","f",1003.78,0,2,24,7,56,"c","n",1.4035,1,"S","S","Switch",0,147,"E",1,"SS"
2,3,18,"N","N","f",986.67,0,4,56,7,24,"i","n",3.05576,1,"L","L","Repeat",0,148,"E",0,"LL"
2,3,19,"P","P","d",1053.44,1,3,56,8,24,"i","j",0.95297,1,"L","S","Switch",0,149,"E",1,"SL"
2,3,20,"P","P","d",786.9,1,7,24,2,56,"i","n",0.71994,1,"S","L","Repeat",0,150,"E",0,"LS"
2,3,21,"P","P","d",853.56,1,3,56,9,24,"i","j",0.67045,1,"L","L","Repeat",0,151,"E",0,"LL"
2,3,22,"P","P","d",1552.06,1,9,24,2,56,"i","n",1.20417,1,"L","S","Repeat",0,152,"E",0,"SL"
2,3,23,"N","N","f",586.24,0,3,56,7,24,"i","n",0.75267,1,"L","L","Switch",0,153,"E",1,"LL"
2,3,24,"N","N","f",6175.84,0,2,56,7,24,"i","n",1.47051,1,"L","S","Repeat",0,154,"E",0,"SL"
2,3,25,"P","P","f",553.55,1,9,24,4,56,"i","n",1.57074,1,"S","L","Switch",0,155,"E",1,"LS"
2,3,26,"P","P","d",1353.1,1,3,24,9,56,"c","n",0.83707,1,"S","L","Repeat",0,156,"E",0,"LS"
2,3,27,"P","P","d",969.64,1,9,56,2,24,"c","j",0.58734,1,"S","L","Repeat",0,157,"E",0,"LS"
2,3,28,"N","N","f",1020.81,0,4,56,7,24,"i","n",1.12014,1,"S","S","Switch",0,158,"E",1,"SS"
2,3,29,"P","P","d",652.93,1,2,56,9,24,"i","j",0.76789,1,"S","S","Switch",0,159,"E",1,"SS"
2,3,30,"P","P","f",586.62,1,9,56,4,24,"c","j",1.6216,1,"S","S","Repeat",0,160,"E",0,"SS"
2,3,31,"P","P","d",1504.04,1,3,56,9,24,"i","j",3.10635,1,"L","S","Repeat",0,161,"E",0,"SL"
2,3,32,"N","N","f",569.45,0,7,24,4,56,"i","j",1.45372,1,"L","L","Switch",0,162,"E",1,"LL"
2,3,33,"P","P","d",836.94,1,7,24,2,56,"i","n",0.72041,1,"S","S","Switch",0,163,"E",1,"SS"
2,3,34,"N","N","f",1203.58,0,7,56,4,24,"c","j",2.08868,1,"S","S","Switch",0,164,"E",1,"SS"
2,3,35,"N","N","f",1103.17,0,8,24,3,56,"i","j",1.12035,1,"L","S","Repeat",0,165,"E",0,"SL"
2,3,36,"N","N","f",870.07,0,9,56,2,24,"c","j",1.76903,1,"L","S","Repeat",0,166,"E",0,"SL"
2,3,37,"P","P","d",585.93,1,9,56,4,24,"c","j",0.63673,1,"S","S","Switch",0,167,"E",1,"SS"
2,3,38,"P","P","d",802.96,1,7,24,3,56,"i","n",2.35464,1,"L","L","Repeat",0,168,"E",0,"LL"
2,3,39,"N","N","f",1253.87,0,9,24,2,56,"i","j",1.7215,1,"S","S","Switch",0,169,"E",1,"SS"
2,3,40,"P","P","d",1220.2,1,3,56,9,24,"i","j",0.93722,1,"L","L","Switch",0,170,"E",1,"LL"
2,3,41,"P","P","d",1103.48,1,2,56,7,24,"i","j",0.58704,1,"S","L","Repeat",0,171,"E",0,"LS"
2,3,42,"P","P","d",6542.46,1,8,56,4,24,"c","j",0.68657,1,"L","L","Repeat",0,172,"E",0,"LL"
2,3,43,"P","P","d",702.49,1,7,24,2,56,"i","n",0.93724,1,"S","S","Repeat",0,173,"E",0,"SS"
2,3,44,"N","N","f",569.79,0,3,24,8,56,"c","n",0.58726,1,"S","L","Switch",0,174,"E",1,"LS"
2,3,45,"P","P","d",635.92,1,2,24,7,56,"c","n",0.7031,1,"S","L","Switch",0,175,"E",1,"LS"
2,3,46,"N","N","f",870.25,0,8,56,3,24,"c","j",1.35239,1,"L","S","Switch",0,176,"E",1,"SL"
2,3,47,"N","N","f",836.72,0,8,56,4,24,"c","j",4.45763,1,"L","L","Repeat",0,177,"E",0,"LL"
2,3,48,"N","N","f",686.44,0,7,56,3,24,"c","j",0.553,1,"S","S","Repeat",0,178,"E",0,"SS"
2,3,49,"N","N","f",1153.43,0,4,24,9,56,"c","n",1.32046,1,"L","L","Repeat",0,179,"E",0,"LL"
2,3,50,"N","N","f",1086.73,0,9,24,3,56,"i","j",1.77079,1,"S","S","Repeat",0,180,"E",0,"SS"
2,3,51,"P","P","d",502.68,1,9,56,2,24,"c","j",0.45233,1,"S","L","Switch",0,181,"E",1,"LS"
2,3,52,"N","N","f",853.51,0,4,56,8,24,"i","n",0.8696,1,"S","L","Switch",0,182,"E",1,"LS"
2,3,53,"P","P","d",920.15,1,2,24,8,56,"c","n",0.80381,1,"L","S","Switch",0,183,"E",1,"SL"
2,3,54,"N","N","f",869.9,0,9,56,4,24,"c","j",3.05598,1,"L","L","Switch",0,184,"E",1,"LL"
2,3,55,"N","N","f",886.37,0,2,56,7,24,"i","n",0.82016,1,"S","S","Repeat",0,185,"E",0,"SS"
2,3,56,"P","P","d",2071.57,1,7,56,3,24,"c","j",0.6199,1,"L","L","Switch",0,186,"E",1,"LL"
2,3,57,"P","P","d",820.04,1,2,24,8,56,"c","n",1.27085,1,"L","S","Repeat",0,187,"E",0,"SL"
2,3,58,"N","N","f",2204.91,0,3,24,9,56,"c","n",1.1211,1,"L","S","Switch",0,188,"E",1,"SL"
2,3,59,"P","P","d",719.9,1,4,24,9,56,"c","n",0.78638,1,"S","S","Switch",0,189,"E",1,"SS"
2,3,60,"N","N","f",3288.68,0,9,24,2,56,"i","j",2.43869,1,"L","S","Switch",0,190,"E",1,"SL"
2,3,61,"N","N","f",1036.62,0,4,24,9,56,"c","n",0.81933,1,"S","L","Repeat",0,191,"E",0,"LS"
2,3,62,"P","P","d",1470.5,1,7,56,2,24,"c","j",0.97035,1,"L","S","Switch",0,192,"E",1,"SL"
2,3,63,"P","P","d",736.74,1,4,24,9,56,"c","n",0.63667,1,"S","S","Repeat",0,193,"E",0,"SS"
2,3,64,"N","N","f",1353.71,0,2,56,7,24,"i","n",1.33758,1,"L","S","Switch",0,194,"E",1,"SL"
2,3,65,"P","P","d",753,1,9,24,4,56,"i","n",1.06854,1,"L","L","Switch",0,195,"E",1,"LL"
2,4,2,"N","N","f",569.92,0,9,56,3,24,"c","j",1.16892,1,"L","L","Switch",0,197,"E",1,"LL"
2,4,3,"P","P","d",703.34,1,9,24,4,56,"i","n",0.88692,1,"L","S","Switch",0,198,"E",1,"SL"
2,4,4,"P","P","d",1337.2,1,3,56,9,24,"i","j",0.91994,1,"L","S","Repeat",0,199,"E",0,"SL"
2,4,5,"P","P","d",453.12,1,2,24,9,56,"c","n",0.61993,1,"L","L","Repeat",0,200,"E",0,"LL"
2,4,6,"P","P","d",903.42,1,7,56,3,24,"c","j",0.50304,1,"S","L","Repeat",0,201,"E",0,"LS"
2,4,7,"N","N","f",1086.95,0,2,56,9,24,"i","n",0.58611,1,"L","L","Switch",0,202,"E",1,"LL"
2,4,8,"P","P","d",1753.83,1,4,56,7,24,"i","j",2.78875,1,"S","L","Switch",0,203,"E",1,"LS"
2,4,9,"P","P","d",752.96,1,3,56,9,24,"i","j",0.70386,1,"S","S","Repeat",0,204,"E",0,"SS"
2,4,10,"N","N","f",1403.96,0,7,24,4,56,"i","j",1.40456,1,"L","S","Switch",0,205,"E",1,"SL"
2,4,11,"P","P","d",519.66,1,2,24,9,56,"c","n",0.56951,1,"L","L","Switch",0,206,"E",1,"LL"
2,4,12,"P","P","d",686.62,1,9,24,3,56,"i","n",0.71991,1,"S","L","Repeat",0,207,"E",0,"LS"
2,4,13,"N","N","f",552.52,0,4,24,7,56,"c","n",1.13713,1,"L","S","Switch",0,208,"E",1,"SL"
2,4,14,"N","N","f",836.69,0,7,24,3,56,"i","j",0.90397,1,"S","S","Repeat",0,209,"E",0,"SS"
2,4,15,"N","N","f",1253.84,0,8,56,4,24,"c","j",0.66807,1,"S","S","Repeat",0,210,"E",0,"SS"
2,4,16,"N","N","f",567.62,0,3,24,8,56,"c","n",1.1207,1,"L","S","Repeat",0,211,"E",0,"SL"
2,4,17,"N","N","f",503.01,0,9,56,2,24,"c","j",0.6364,1,"L","L","Repeat",0,212,"E",0,"LL"
2,4,18,"P","P","d",936.82,1,9,56,3,24,"c","j",0.41944,1,"S","L","Switch",0,213,"E",1,"LS"
2,4,19,"P","P","d",585.94,1,4,24,9,56,"c","n",0.6197,1,"S","L","Repeat",0,214,"E",0,"LS"
2,4,20,"N","N","f",986.66,0,3,56,8,24,"i","n",1.00392,1,"S","L","Switch",0,215,"E",1,"LS"
2,4,21,"N","N","f",552.26,0,9,56,4,24,"c","j",0.57036,1,"S","L","Repeat",0,216,"E",0,"LS"
2,4,22,"P","P","d",703.23,1,9,56,3,24,"c","j",0.68561,1,"L","S","Switch",0,217,"E",1,"SL"
2,4,23,"P","P","d",484.38,1,4,56,9,24,"i","j",0.6871,1,"L","L","Repeat",0,218,"E",0,"LL"
2,4,24,"N","N","f",435.78,0,7,56,3,24,"c","j",0.80307,1,"L","S","Switch",0,219,"E",1,"SL"
2,4,25,"N","N","f",636.82,0,7,24,4,56,"i","j",0.72,1,"S","L","Repeat",0,220,"E",0,"LS"
2,4,26,"P","P","d",701.34,1,2,56,8,24,"i","n",0.8705,0,"S","S","Switch",0,221,"E",1,"SS"
2,4,27,"N","N","f",619.73,0,3,24,9,56,"c","j",1.05355,0,"S","S","Switch",1,222,"E",1,"SS"
2,4,28,"N","N","f",1604.12,0,4,56,8,24,"i","n",1.55431,1,"S","L","Repeat",1,223,"E",0,"LS"
2,4,29,"N","N","f",653.23,0,3,56,9,24,"i","n",1.0372,1,"L","S","Repeat",0,224,"E",0,"SL"
2,4,30,"P","P","d",302.9,1,7,56,2,24,"c","j",0.52001,1,"L","L","Switch",0,225,"E",1,"LL"
2,4,31,"P","P","d",636.13,1,8,24,4,56,"i","n",0.68628,1,"S","S","Repeat",0,226,"E",0,"SS"
2,4,32,"N","N","f",653.32,0,9,56,3,24,"c","j",1.02006,1,"S","S","Switch",0,227,"E",1,"SS"
2,4,33,"N","N","f",953.24,0,4,24,7,56,"c","n",0.7365,1,"L","L","Repeat",0,228,"E",0,"LL"
2,4,34,"N","N","f",568.96,0,3,56,9,24,"i","n",0.66945,1,"L","L","Repeat",0,229,"E",0,"LL"
2,4,35,"N","N","f",652.43,0,7,56,2,24,"c","j",1.05172,1,"L","S","Repeat",0,230,"E",0,"SL"
2,4,36,"P","P","f",803.46,1,9,24,4,56,"i","n",0.56985,1,"S","L","Switch",0,231,"E",1,"LS"
2,4,37,"P","P","d",870.05,1,8,24,2,56,"i","n",1.12082,1,"L","L","Repeat",0,232,"E",0,"LL"
2,4,38,"P","P","d",536.62,1,4,24,9,56,"c","n",1.27092,1,"S","S","Repeat",0,233,"E",0,"SS"
2,4,39,"P","P","d",519.52,1,2,56,7,24,"i","j",0.60295,1,"S","L","Repeat",0,234,"E",0,"LS"
2,4,41,"P","P","d",1370.63,1,3,24,9,56,"c","n",0.86992,1,"L","S","Switch",0,236,"E",1,"SL"
2,4,42,"N","N","f",1136.53,0,8,24,4,56,"i","j",0.75317,1,"S","S","Switch",0,237,"E",1,"SS"
2,4,43,"P","P","d",1054.17,1,3,24,8,56,"c","n",1.12025,1,"S","L","Switch",0,238,"E",1,"LS"
2,4,44,"P","P","d",819.8,1,9,56,4,24,"c","j",0.71984,1,"S","S","Repeat",0,239,"E",0,"SS"
2,4,45,"N","N","f",586.48,0,3,24,8,56,"c","n",0.55352,1,"S","L","Switch",0,240,"E",1,"LS"
2,4,46,"P","P","d",820.07,1,9,56,2,24,"c","j",0.68639,1,"S","S","Switch",0,241,"E",1,"SS"
2,4,47,"N","N","f",536.59,0,3,56,7,24,"i","n",1.52132,1,"S","S","Switch",0,242,"E",1,"SS"
2,4,48,"P","P","d",836.92,1,9,24,4,56,"i","j",0.98699,0,"S","S","Switch",0,243,"E",1,"SS"
2,4,49,"N","N","f",569.94,0,3,56,9,24,"i","n",1.68865,1,"L","S","Switch",1,244,"E",1,"SL"
2,4,50,"N","N","f",652.92,0,4,24,7,56,"c","n",0.58667,1,"S","S","Repeat",0,245,"E",0,"SS"
2,4,51,"N","N","f",419.47,0,9,24,3,56,"i","j",0.73702,1,"L","S","Repeat",0,246,"E",0,"SL"
2,4,52,"P","P","d",503.44,1,4,56,8,24,"i","j",0.9198,1,"L","S","Switch",0,247,"E",1,"SL"
2,4,53,"P","P","d",619.25,1,8,56,2,24,"c","j",0.61751,1,"L","S","Repeat",0,248,"E",0,"SL"
2,4,54,"N","N","f",802.79,0,8,56,3,24,"c","j",1.1705,1,"S","L","Switch",0,249,"E",1,"LS"
2,4,55,"N","N","f",586.23,0,8,24,4,56,"i","j",1.13735,1,"L","L","Repeat",0,250,"E",0,"LL"
2,4,56,"N","N","f",553.14,0,3,24,9,56,"c","n",0.80178,1,"S","L","Repeat",0,251,"E",0,"LS"
2,4,57,"N","N","f",1454.22,0,4,56,8,24,"i","n",0.88662,1,"S","S","Repeat",0,252,"E",0,"SS"
2,4,58,"P","P","d",887.06,1,3,56,7,24,"i","j",2.17184,1,"L","L","Switch",0,253,"E",1,"LL"
2,4,59,"P","P","d",569.08,1,7,56,4,24,"c","j",0.93668,1,"L","L","Repeat",0,254,"E",0,"LL"
2,4,60,"N","N","f",970.27,0,7,24,3,56,"i","j",2.55513,1,"L","L","Switch",0,255,"E",1,"LL"
2,4,61,"P","P","d",553.15,1,8,24,4,56,"i","n",1.65497,1,"L","L","Switch",0,256,"E",1,"LL"
2,4,62,"N","N","f",1303.64,0,9,24,3,56,"i","j",1.35379,1,"S","L","Switch",0,257,"E",1,"LS"
2,4,63,"P","P","d",1203.52,1,2,24,9,56,"c","n",0.9033,1,"S","S","Switch",0,258,"E",1,"SS"
2,4,64,"P","P","d",603.05,1,9,24,4,56,"i","n",1.10383,1,"L","S","Repeat",0,259,"E",0,"SL"
2,4,65,"P","P","d",602.65,1,3,24,7,56,"c","n",1.17018,1,"L","S","Repeat",0,260,"E",0,"SL"
2,5,2,"N","N","f",719.89,0,4,56,7,24,"i","n",0.83457,1,"L","S","Switch",0,262,"E",1,"SL"
2,5,3,"N","N","f",669.19,0,2,56,7,24,"i","n",0.95335,1,"L","S","Repeat",0,263,"E",0,"SL"
2,5,4,"N","N","f",552.62,0,3,56,8,24,"i","n",0.66974,1,"L","L","Repeat",0,264,"E",0,"LL"
2,5,5,"N","N","f",536.27,0,2,56,7,24,"i","n",0.95436,1,"S","L","Repeat",0,265,"E",0,"LS"
2,5,6,"N","N","f",536.3,0,7,56,3,24,"c","j",0.7032,1,"L","L","Repeat",0,266,"E",0,"LL"
2,5,7,"N","N","f",386.16,0,4,24,9,56,"c","n",0.62019,1,"L","L","Repeat",0,267,"E",0,"LL"
2,5,8,"N","N","f",836.5,0,3,56,8,24,"i","n",0.72044,1,"S","S","Repeat",0,268,"E",0,"SS"
2,5,9,"P","P","d",686.93,1,9,24,4,56,"i","n",0.83747,1,"L","S","Switch",0,269,"E",1,"SL"
2,5,10,"P","P","d",569.34,1,8,56,2,24,"c","j",0.68661,1,"S","L","Repeat",0,270,"E",0,"LS"
2,5,11,"P","P","d",436.26,1,4,24,9,56,"c","n",0.67009,1,"L","S","Repeat",0,271,"E",0,"SL"
2,5,12,"P","P","d",619.25,1,3,56,9,24,"i","j",0.81757,1,"L","S","Repeat",0,272,"E",0,"SL"
2,5,13,"N","N","f",602.98,0,2,56,9,24,"i","n",1.03735,1,"L","L","Switch",0,273,"E",1,"LL"
2,5,14,"P","P","d",502.24,1,8,24,4,56,"i","n",0.45353,1,"L","L","Switch",0,274,"E",1,"LL"
2,5,15,"P","P","d",619.49,1,3,24,8,56,"c","n",0.56993,1,"S","L","Repeat",0,275,"E",0,"LS"
2,5,16,"P","P","d",535.81,1,2,56,8,24,"i","j",0.60132,1,"S","L","Repeat",0,276,"E",0,"LS"
2,5,17,"N","N","f",669.8,0,8,24,4,56,"i","j",1.12047,1,"S","L","Switch",0,277,"E",1,"LS"
2,5,18,"P","P","d",719.99,1,9,56,2,24,"c","j",0.65325,1,"L","S","Switch",0,278,"E",1,"SL"
2,5,19,"P","P","d",519.33,1,4,56,9,24,"i","j",0.55265,1,"S","S","Repeat",0,279,"E",0,"SS"
2,5,20,"N","N","f",519.65,0,7,24,3,56,"i","j",0.67047,1,"L","S","Switch",0,280,"E",1,"SL"
2,5,21,"P","P","d",586.6,1,4,24,8,56,"c","n",1.00325,1,"L","L","Switch",0,281,"E",1,"LL"
2,5,22,"N","N","f",585.79,0,8,24,3,56,"i","j",0.70334,1,"S","S","Switch",0,282,"E",1,"SS"
2,5,23,"N","N","f",669.76,0,4,24,9,56,"c","n",0.51876,1,"S","L","Repeat",0,283,"E",0,"LS"
2,5,24,"N","N","f",603.22,0,9,24,2,56,"i","j",0.65345,1,"L","S","Repeat",0,284,"E",0,"SL"
2,5,25,"N","N","f",569.79,0,7,24,4,56,"i","j",0.75342,1,"S","L","Repeat",0,285,"E",0,"LS"
2,5,26,"N","N","f",486.08,0,2,24,7,56,"c","n",0.66977,1,"S","S","Repeat",0,286,"E",0,"SS"
2,5,27,"P","P","d",602.77,1,3,24,8,56,"c","n",0.68687,1,"S","L","Switch",0,287,"E",1,"LS"
2,5,28,"N","N","f",569.76,0,7,56,4,24,"c","j",0.85349,1,"S","S","Switch",0,288,"E",1,"SS"
2,5,29,"P","P","d",469.67,1,8,56,3,24,"c","j",0.50367,1,"S","L","Switch",0,289,"E",1,"LS"
2,5,30,"N","N","f",386.34,0,8,56,4,24,"c","j",0.66998,1,"L","S","Switch",0,290,"E",1,"SL"
2,5,31,"P","P","d",403.04,1,7,56,3,24,"c","j",1.37015,1,"L","L","Switch",0,291,"E",1,"LL"
2,5,32,"P","P","d",569.84,1,9,24,2,56,"i","n",0.4867,1,"S","L","Repeat",0,292,"E",0,"LS"
2,5,33,"N","N","d",435.9,0,3,24,8,56,"c","n",0.68638,1,"S","L","Switch",0,293,"E",1,"LS"
2,5,34,"P","P","d",820.27,1,4,56,8,24,"i","j",0.90359,1,"L","S","Switch",0,294,"E",1,"SL"
2,5,35,"P","P","d",636.15,1,8,56,3,24,"c","j",0.58604,1,"L","L","Repeat",0,295,"E",0,"LL"
2,5,36,"P","P","d",653.1,1,4,24,8,56,"c","n",1.08686,1,"S","S","Repeat",0,296,"E",0,"SS"
2,5,37,"N","N","f",1688.11,0,2,56,8,24,"i","n",1.10395,1,"S","S","Switch",0,297,"E",1,"SS"
2,5,38,"N","N","f",603.13,0,7,56,4,24,"c","j",0.86988,1,"S","L","Repeat",0,298,"E",0,"LS"
2,5,39,"P","P","d",736.99,1,2,56,9,24,"i","j",1.22012,1,"L","L","Switch",0,299,"E",1,"LL"
2,5,40,"N","N","f",1187.18,0,4,24,9,56,"c","n",1.20381,1,"L","S","Switch",0,300,"E",1,"SL"
2,5,41,"P","P","d",1804.33,1,2,56,9,24,"i","j",0.81956,1,"S","S","Switch",0,301,"E",1,"SS"
2,5,42,"P","P","d",918.21,1,3,24,7,56,"c","n",0.98725,1,"L","L","Repeat",0,302,"E",0,"LL"
2,5,43,"N","N","f",870.23,0,4,56,8,24,"i","n",2.67202,1,"S","L","Switch",0,303,"E",1,"LS"
2,5,44,"N","N","f",469.86,0,8,56,3,24,"c","j",0.92045,1,"L","S","Repeat",0,304,"E",0,"SL"
2,5,45,"N","N","f",1337.08,0,9,24,4,56,"i","j",2.23867,1,"L","L","Repeat",0,305,"E",0,"LL"
2,5,46,"P","P","d",4323.81,1,2,24,9,56,"c","n",1.53753,1,"S","S","Switch",0,306,"E",1,"SS"
2,5,47,"P","P","d",719.44,1,8,56,4,24,"c","j",0.51908,1,"S","S","Repeat",0,307,"E",0,"SS"
2,5,48,"N","N","f",619.84,0,9,56,2,24,"c","n",2.32169,0,"L","L","Switch",0,308,"E",1,"LL"
2,5,49,"P","P","d",624.49,1,4,24,8,56,"c","n",2.1224,1,"L","S","Switch",1,309,"E",1,"SL"
2,5,50,"P","P","d",420.65,1,8,24,3,56,"i","n",0.83807,1,"L","S","Repeat",0,310,"E",0,"SL"
2,5,51,"P","P","d",537.46,1,9,24,4,56,"i","n",0.57028,1,"S","S","Repeat",0,311,"E",0,"SS"
2,5,52,"N","N","f",520.39,0,2,24,8,56,"c","n",0.50504,1,"L","L","Switch",0,312,"E",1,"LL"
2,5,53,"P","P","d",537.25,1,8,24,3,56,"i","n",0.57122,1,"S","L","Switch",0,313,"E",1,"LS"
2,5,54,"P","P","d",536.87,1,8,56,2,24,"c","j",0.6045,1,"L","S","Repeat",0,314,"E",0,"SL"
2,5,55,"P","P","d",470.71,1,8,24,4,56,"i","n",0.48724,1,"L","L","Repeat",0,315,"E",0,"LL"
2,5,56,"N","N","f",570.98,0,7,56,3,24,"c","j",0.58718,1,"S","L","Switch",0,316,"E",1,"LS"
2,5,57,"P","P","d",634.62,1,7,56,4,24,"c","j",0.87191,1,"S","S","Switch",0,317,"E",1,"SS"
2,5,58,"N","N","f",721.08,0,7,24,2,56,"i","j",0.87147,1,"L","L","Switch",0,318,"E",1,"LL"
2,5,59,"N","N","f",553.64,0,3,24,9,56,"c","n",1.30512,1,"L","S","Repeat",0,319,"E",0,"SL"
2,5,60,"P","P","d",770.16,1,4,56,7,24,"i","j",0.55458,1,"S","L","Switch",0,320,"E",1,"LS"
2,5,61,"P","P","d",6476.96,1,2,56,9,24,"i","j",0.73849,1,"L","L","Repeat",0,321,"E",0,"LL"
2,5,62,"N","N","f",620.92,0,4,24,9,56,"c","n",1.63833,1,"S","S","Switch",0,322,"E",1,"SS"
2,5,63,"N","N","f",737.86,0,8,56,2,24,"c","j",0.88821,1,"S","S","Repeat",0,323,"E",0,"SS"
2,5,64,"N","N","f",621.21,0,8,24,3,56,"i","j",0.77097,1,"S","S","Repeat",0,324,"E",0,"SS"
2,5,65,"P","P","d",654.61,1,9,24,4,56,"i","n",0.60467,1,"S","S","Switch",0,325,"E",1,"SS"
2,6,2,"P","P","d",587.09,1,7,56,3,24,"c","j",0.93865,1,"S","S","Switch",0,327,"E",1,"SS"
2,6,3,"N","N","f",504.22,0,2,56,8,24,"i","n",0.67102,1,"L","S","Switch",0,328,"E",1,"SL"
2,6,4,"N","N","f",671.28,0,4,24,8,56,"c","n",0.487,1,"S","S","Repeat",0,329,"E",0,"SS"
2,6,5,"P","P","d",837.89,1,9,24,3,56,"i","n",0.75495,1,"L","S","Switch",0,330,"E",1,"SL"
2,6,6,"P","P","d",587.14,1,8,24,2,56,"i","n",0.70502,1,"S","S","Repeat",0,331,"E",0,"SS"
2,6,7,"P","P","d",537.34,1,8,56,3,24,"c","j",0.4711,1,"L","L","Repeat",0,332,"E",0,"LL"
2,6,8,"N","N","f",620.96,0,9,24,2,56,"i","j",0.93847,1,"L","S","Switch",0,333,"E",1,"SL"
2,6,9,"N","N","f",604.05,0,3,24,9,56,"c","n",0.87106,1,"S","L","Repeat",0,334,"E",0,"LS"
2,6,10,"P","P","d",838.02,1,4,24,8,56,"c","n",0.4372,1,"S","L","Switch",0,335,"E",1,"LS"
2,6,11,"P","P","d",370.71,1,2,24,9,56,"c","n",0.45076,1,"L","L","Repeat",0,336,"E",0,"LL"
2,6,12,"P","P","d",654.26,1,4,24,7,56,"c","n",0.60429,1,"S","S","Repeat",0,337,"E",0,"SS"
2,6,13,"N","N","f",571,0,8,24,3,56,"i","j",0.72087,1,"S","L","Switch",0,338,"E",1,"LS"
2,6,14,"N","N","f",487.54,0,2,56,9,24,"i","n",0.95508,1,"L","S","Repeat",0,339,"E",0,"SL"
2,6,15,"N","N","f",538.01,0,4,56,9,24,"i","n",0.67141,1,"S","L","Repeat",0,340,"E",0,"LS"
2,6,16,"N","N","f",820.94,0,8,24,2,56,"i","j",0.68796,1,"L","S","Repeat",0,341,"E",0,"SL"
2,6,17,"P","P","d",671.39,1,3,56,9,24,"i","j",0.72068,1,"S","S","Switch",0,342,"E",1,"SS"
2,6,18,"P","P","d",553.91,1,8,56,2,24,"c","j",0.70483,1,"S","L","Repeat",0,343,"E",0,"LS"
2,6,19,"N","N","f",1371.9,0,8,56,4,24,"c","j",1.27122,1,"L","S","Switch",0,344,"E",1,"SL"
2,6,20,"P","P","d",1471.73,1,9,56,3,24,"c","j",0.72137,1,"L","S","Switch",0,345,"E",1,"SL"
2,6,21,"N","N","f",570.29,0,2,24,8,56,"c","n",0.52079,1,"S","L","Switch",0,346,"E",1,"LS"
2,6,22,"N","N","d",753.97,0,9,24,3,56,"i","j",1.33888,1,"S","S","Repeat",0,347,"E",0,"SS"
2,6,23,"N","N","f",554.4,0,4,56,9,24,"i","n",1.62248,1,"L","L","Repeat",0,348,"E",0,"LL"
2,6,24,"P","P","d",604.52,1,3,56,7,24,"i","n",1.12189,0,"L","S","Switch",0,349,"E",1,"SL"
2,6,25,"N","N","f",737.81,0,9,24,2,56,"i","n",1.0706,0,"S","S","Switch",1,350,"E",1,"SS"
2,6,26,"P","P","d",1305.18,1,3,24,7,56,"c","n",0.65455,1,"L","S","Switch",1,351,"E",1,"SL"
2,6,27,"P","P","d",753.84,1,9,24,2,56,"i","n",1.30496,1,"L","S","Repeat",0,352,"E",0,"SL"
2,6,28,"N","N","f",720.94,0,8,56,4,24,"c","j",0.77112,1,"S","L","Switch",0,353,"E",1,"LS"
2,6,29,"P","P","d",504.06,1,2,24,8,56,"c","n",0.83806,1,"S","S","Switch",0,354,"E",1,"SS"
2,6,30,"N","N","f",420.26,0,8,24,4,56,"i","j",0.70494,1,"L","L","Switch",0,355,"E",1,"LL"
2,6,31,"P","P","d",503.82,1,9,24,3,56,"i","n",0.43728,1,"L","L","Switch",0,356,"E",1,"LL"
2,6,32,"P","P","d",487.5,1,9,56,4,24,"c","j",0.92181,1,"L","S","Repeat",0,357,"E",0,"SL"
2,6,33,"N","N","f",570.87,0,2,56,9,24,"i","n",1.85642,1,"L","L","Switch",0,358,"E",1,"LL"
2,6,34,"N","N","f",470.93,0,7,56,3,24,"c","j",0.65468,1,"S","L","Repeat",0,359,"E",0,"LS"
2,6,35,"N","N","f",1722.39,0,4,24,8,56,"c","n",0.90514,1,"L","L","Repeat",0,360,"E",0,"LL"
2,6,36,"P","P","f",721.25,1,2,56,8,24,"i","j",0.4843,1,"S","L","Switch",0,361,"E",1,"LS"
2,6,37,"N","N","f",1121.47,0,3,56,8,24,"i","n",1.45579,1,"S","L","Switch",0,362,"E",1,"LS"
2,6,38,"P","P","d",337.15,1,4,56,7,24,"i","j",0.97177,1,"L","L","Switch",0,363,"E",1,"LL"
2,6,39,"P","P","d",654.15,1,9,24,3,56,"i","n",3.65748,1,"S","L","Repeat",0,364,"E",0,"LS"
2,6,40,"P","P","d",571.23,1,4,24,9,56,"c","n",0.67174,1,"S","L","Repeat",0,365,"E",0,"LS"
2,6,41,"P","P","d",721.17,1,3,56,9,24,"i","j",1.57226,1,"S","L","Repeat",0,366,"E",0,"LS"
2,6,42,"N","N","f",1788.89,0,2,24,9,56,"c","n",1.25566,1,"L","L","Switch",0,367,"E",1,"LL"
2,6,43,"P","P","d",587.52,1,9,56,4,24,"c","j",0.57076,1,"S","L","Switch",0,368,"E",1,"LS"
2,6,44,"P","P","d",1485.39,1,7,56,3,24,"c","j",1.6056,1,"S","S","Repeat",0,369,"E",0,"SS"
2,6,45,"P","P","d",1622.25,1,8,24,4,56,"i","n",0.87108,1,"L","L","Repeat",0,370,"E",0,"LL"
2,6,46,"N","N","f",470.6,0,3,24,9,56,"c","n",0.67111,1,"S","S","Switch",0,371,"E",1,"SS"
2,6,47,"N","N","f",688.2,0,9,24,4,56,"i","j",1.28907,1,"S","L","Repeat",0,372,"E",0,"LS"
2,6,48,"N","N","f",955.01,0,3,24,8,56,"c","n",1.27193,1,"L","S","Repeat",0,373,"E",0,"SL"
2,6,49,"P","P","d",4692.38,1,8,24,4,56,"i","n",1.40554,1,"S","L","Switch",0,374,"E",1,"LS"
2,6,50,"P","P","d",5226.01,1,3,56,9,24,"i","j",1.07127,1,"L","L","Repeat",0,375,"E",0,"LL"
2,6,51,"N","N","f",1021.62,0,4,24,7,56,"c","n",1.67221,1,"L","S","Switch",0,376,"E",1,"SL"
2,6,52,"N","N","f",1605.41,0,9,24,3,56,"i","j",0.88757,1,"L","L","Repeat",0,377,"E",0,"LL"
2,6,53,"N","N","f",1154.29,0,7,56,4,24,"c","j",1.33493,1,"L","L","Repeat",0,378,"E",0,"LL"
2,6,54,"P","P","d",1505.27,1,8,24,2,56,"i","n",1.96915,1,"S","S","Switch",0,379,"E",1,"SS"
2,6,55,"P","P","d",737.79,1,4,56,7,24,"i","j",1.40145,1,"L","S","Repeat",0,380,"E",0,"SL"
2,6,56,"P","P","d",787.48,1,3,24,7,56,"c","n",0.63785,1,"L","S","Repeat",0,381,"E",0,"SL"
2,6,57,"P","P","d",654.35,1,4,56,8,24,"i","j",0.55485,1,"S","S","Repeat",0,382,"E",0,"SS"
2,6,58,"N","N","f",938.03,0,9,56,2,24,"c","j",1.00371,1,"L","L","Switch",0,383,"E",1,"LL"
2,6,59,"P","P","d",821.18,1,7,56,4,24,"c","j",0.92135,1,"L","L","Switch",0,384,"E",1,"LL"
2,6,60,"N","N","f",553.59,0,8,56,3,24,"c","j",1.08814,1,"S","S","Switch",0,385,"E",1,"SS"
2,6,61,"P","P","d",771.22,1,2,24,9,56,"c","n",1.2387,1,"L","L","Switch",0,386,"E",1,"LL"
2,6,62,"N","N","f",637.24,0,3,56,9,24,"i","n",1.27083,1,"S","S","Switch",0,387,"E",1,"SS"
2,6,63,"N","N","f",553.14,0,4,56,9,24,"i","n",0.70487,1,"S","S","Repeat",0,388,"E",0,"SS"
2,6,64,"N","N","f",454.47,0,7,56,2,24,"c","j",0.9552,1,"L","S","Repeat",0,389,"E",0,"SL"
2,6,65,"N","N","f",821.34,0,8,56,3,24,"c","j",1.16864,1,"S","S","Repeat",0,390,"E",0,"SS"
4,1,2,"P","P","f",686.63,1,3,56,8,24,"i","j",1.36993,1,"L","S","Switch",0,2,"E",1,"SL"
4,1,3,"N","N","d",636.3,0,4,56,9,24,"i","n",0.61934,1,"L","S","Switch",0,3,"E",1,"SL"
4,1,4,"P","P","f",603.21,1,8,56,2,24,"c","j",1.1871,1,"S","S","Switch",0,4,"E",1,"SS"
4,1,5,"N","N","d",2638.19,0,7,24,3,56,"i","j",1.72155,1,"S","S","Switch",0,5,"E",1,"SS"
4,1,6,"N","N","d",669.93,0,4,24,7,56,"c","n",0.60313,1,"L","S","Repeat",0,6,"E",0,"SL"
4,1,7,"P","P","f",786.62,1,2,56,7,24,"i","j",0.48607,1,"S","L","Switch",0,7,"E",1,"LS"
4,1,8,"P","P","f",820.03,1,4,56,8,24,"i","j",0.52046,1,"S","L","Repeat",0,8,"E",0,"LS"
4,1,9,"N","N","d",719.93,0,3,24,8,56,"c","n",1.17079,1,"S","S","Switch",0,9,"E",1,"SS"
4,1,10,"P","P","f",3136.99,1,2,24,9,56,"c","n",0.75297,1,"L","S","Switch",0,10,"E",1,"SL"
4,1,11,"P","P","f",569.64,1,8,56,4,24,"c","j",0.45373,1,"L","S","Repeat",0,11,"E",0,"SL"
4,1,12,"P","P","f",619.83,1,2,24,9,56,"c","n",0.43688,1,"S","S","Repeat",0,12,"E",0,"SS"
4,1,13,"P","P","f",819.66,1,4,24,8,56,"c","n",0.58698,1,"L","L","Repeat",0,13,"E",0,"LL"
4,1,14,"N","N","d",1002.89,0,3,24,9,56,"c","n",0.58632,1,"S","L","Switch",0,14,"E",1,"LS"
4,1,15,"N","N","d",469.37,0,2,56,9,24,"i","n",0.63613,1,"S","L","Repeat",0,15,"E",0,"LS"
4,1,16,"P","P","f",786.78,1,9,24,4,56,"i","n",3.12237,1,"L","L","Switch",0,16,"E",1,"LL"
4,1,17,"P","P","f",519.59,1,9,56,2,24,"c","j",0.60326,1,"S","S","Repeat",0,17,"E",0,"SS"
4,1,18,"P","P","f",535.64,1,9,24,3,56,"i","n",0.4701,1,"L","S","Repeat",0,18,"E",0,"SL"
4,1,19,"P","P","f",703.35,1,8,24,4,56,"i","n",0.48662,1,"L","L","Repeat",0,19,"E",0,"LL"
4,1,20,"N","N","d",703.24,0,3,24,9,56,"c","n",0.51943,1,"L","L","Switch",0,20,"E",1,"LL"
4,1,21,"P","P","f",669.57,1,7,24,4,56,"i","n",0.85316,1,"L","S","Switch",0,21,"E",1,"SL"
4,1,22,"P","P","f",853.64,1,2,56,7,24,"i","j",0.53624,1,"L","S","Repeat",0,22,"E",0,"SL"
4,1,23,"N","N","d",402.74,0,3,56,8,24,"i","n",1.52027,1,"L","L","Switch",0,23,"E",1,"LL"
4,1,24,"N","N","d",887.43,0,8,24,2,56,"i","j",0.57003,1,"S","L","Repeat",0,24,"E",0,"LS"
4,1,25,"P","P","f",936.73,1,9,56,4,24,"c","j",0.48566,1,"L","L","Switch",0,25,"E",1,"LL"
4,1,26,"P","P","f",536.09,1,9,24,3,56,"i","n",0.50317,1,"S","S","Repeat",0,26,"E",0,"SS"
4,1,27,"N","N","d",651.02,0,7,24,2,56,"i","j",0.55368,1,"L","S","Switch",0,27,"E",1,"SL"
4,1,28,"N","N","d",485.78,0,7,24,3,56,"i","j",1.48785,1,"S","S","Repeat",0,28,"E",0,"SS"
4,1,29,"N","N","d",569.98,0,7,56,4,24,"c","j",0.53651,1,"L","L","Repeat",0,29,"E",0,"LL"
4,1,30,"N","N","d",452.44,0,7,56,3,24,"c","j",0.50346,1,"L","S","Repeat",0,30,"E",0,"SL"
4,1,31,"P","P","f",1253.08,1,7,24,4,56,"i","n",1.25372,1,"S","S","Switch",0,31,"E",1,"SS"
4,1,32,"P","P","f",369.13,1,9,56,3,24,"c","j",0.50281,1,"L","L","Repeat",0,32,"E",0,"LL"
4,1,33,"P","P","f",602.77,1,2,24,9,56,"c","n",0.48678,1,"S","L","Repeat",0,33,"E",0,"LS"
4,1,34,"P","P","f",552.94,1,4,56,8,24,"i","j",0.53641,1,"S","S","Repeat",0,34,"E",0,"SS"
4,1,35,"N","N","d",619.84,0,2,56,9,24,"i","n",0.70098,1,"S","S","Switch",0,35,"E",1,"SS"
4,1,36,"N","N","d",519.63,0,4,56,9,24,"i","n",0.9537,1,"L","L","Repeat",0,36,"E",0,"LL"
4,1,37,"P","P","f",620.28,1,3,24,8,56,"c","n",0.36738,1,"S","L","Switch",0,37,"E",1,"LS"
4,1,38,"N","N","d",703.2,0,4,56,8,24,"i","n",0.80389,1,"S","L","Switch",0,38,"E",1,"LS"
4,1,39,"N","N","d",802.44,0,2,24,9,56,"c","n",0.48574,1,"L","L","Repeat",0,39,"E",0,"LL"
4,1,40,"N","N","d",503.11,0,9,24,3,56,"i","j",0.55287,1,"L","L","Repeat",0,40,"E",0,"LL"
4,1,41,"P","P","f",536.23,1,7,56,4,24,"c","j",0.47017,1,"S","L","Switch",0,41,"E",1,"LS"
4,1,42,"P","P","f",352.88,1,3,56,9,24,"i","n",0.66978,0,"L","L","Repeat",0,42,"E",0,"LL"
4,1,43,"N","N","d",552.96,0,9,56,4,24,"c","j",1.48693,1,"L","L","Switch",1,43,"E",1,"LL"
4,1,44,"N","N","d",870.21,0,2,56,9,24,"i","n",0.68643,1,"S","S","Repeat",0,44,"E",0,"SS"
4,1,45,"P","P","f",686.18,1,4,24,9,56,"c","n",0.40349,1,"L","L","Switch",0,45,"E",1,"LL"
4,1,46,"P","P","f",536.44,1,9,56,3,24,"c","j",0.40302,1,"S","L","Repeat",0,46,"E",0,"LS"
4,1,47,"P","P","f",603.12,1,2,24,9,56,"c","n",0.4526,1,"L","S","Repeat",0,47,"E",0,"SL"
4,1,48,"N","N","d",636.06,0,9,56,4,24,"c","j",1.08745,1,"S","S","Switch",0,48,"E",1,"SS"
4,1,49,"N","N","d",519.73,0,7,56,3,24,"c","j",0.45255,1,"S","S","Repeat",0,49,"E",0,"SS"
4,1,50,"P","P","f",636.62,1,2,56,7,24,"i","j",0.46989,1,"L","L","Switch",0,50,"E",1,"LL"
4,1,51,"N","N","d",1320.57,0,8,56,4,24,"c","j",1.63792,1,"L","S","Switch",0,51,"E",1,"SL"
4,1,52,"N","N","d",435.57,0,8,56,2,24,"c","j",0.52015,1,"S","L","Repeat",0,52,"E",0,"LS"
4,1,53,"P","P","f",636.07,1,8,56,3,24,"c","j",1.13508,1,"L","S","Switch",0,53,"E",1,"SL"
4,1,54,"N","N","d",669.13,0,2,24,7,56,"c","n",0.45293,1,"L","S","Switch",0,54,"E",1,"SL"
4,1,55,"P","P","f",936.93,1,4,24,7,56,"c","n",0.4678,1,"S","S","Switch",0,55,"E",1,"SS"
4,1,56,"N","N","d",903.38,0,9,24,2,56,"i","j",1.82176,1,"L","L","Switch",0,56,"E",1,"LL"
4,1,57,"N","N","d",569.77,0,3,24,7,56,"c","n",1.57106,1,"S","L","Repeat",0,57,"E",0,"LS"
4,1,58,"P","P","f",619.59,1,4,56,7,24,"i","j",1.03636,1,"S","S","Switch",0,58,"E",1,"SS"
4,1,59,"N","N","d",719.85,0,8,56,3,24,"c","j",0.65348,1,"S","L","Switch",0,59,"E",1,"LS"
4,1,60,"N","N","d",719.75,0,4,24,7,56,"c","n",0.5865,1,"S","S","Repeat",0,60,"E",0,"SS"
4,1,61,"N","N","d",586.07,0,3,56,9,24,"i","n",0.68686,1,"L","S","Repeat",0,61,"E",0,"SL"
4,1,62,"P","P","f",686.56,1,7,24,2,56,"i","n",1.20136,1,"S","L","Switch",0,62,"E",1,"LS"
4,1,63,"P","P","f",636.03,1,7,24,4,56,"i","n",0.87025,1,"S","L","Repeat",0,63,"E",0,"LS"
4,1,64,"N","N","d",720.04,0,8,24,2,56,"i","j",1.27117,1,"S","L","Switch",0,64,"E",1,"LS"
4,1,65,"N","N","d",652.85,0,8,24,3,56,"i","j",1.12039,1,"L","S","Repeat",0,65,"E",0,"SL"
4,2,2,"P","P","f",653.15,1,8,56,2,24,"c","j",0.58655,1,"S","L","Repeat",0,67,"E",0,"LS"
4,2,3,"P","P","f",452.58,1,7,24,3,56,"i","n",0.536,1,"S","L","Repeat",0,68,"E",0,"LS"
4,2,4,"N","N","d",469.84,0,8,24,2,56,"i","j",0.76977,1,"S","S","Switch",0,69,"E",1,"SS"
4,2,5,"N","N","d",403.07,0,3,56,7,24,"i","n",0.58642,1,"S","L","Repeat",0,70,"E",0,"LS"
4,2,6,"N","N","d",469.44,0,8,24,2,56,"i","j",0.53654,1,"L","L","Repeat",0,71,"E",0,"LL"
4,2,7,"N","N","d",352.81,0,7,56,4,24,"c","j",0.51959,1,"L","L","Repeat",0,72,"E",0,"LL"
4,2,8,"N","N","d",236.09,0,3,24,9,56,"c","n",0.57,1,"S","S","Repeat",0,73,"E",0,"SS"
4,2,9,"P","P","d",268.87,1,9,24,2,56,"i","n",1.82147,1,"S","L","Switch",0,74,"E",1,"LS"
4,2,10,"N","N","d",1070.22,0,3,24,7,56,"c","n",1.2873,1,"L","S","Switch",0,75,"E",1,"SL"
4,2,11,"N","N","d",552.99,0,7,56,2,24,"c","j",2.98964,1,"L","S","Repeat",0,76,"E",0,"SL"
4,2,12,"P","P","f",552.69,1,4,24,8,56,"c","n",0.7536,1,"S","S","Switch",0,77,"E",1,"SS"
4,2,13,"N","N","d",686.71,0,2,56,7,24,"i","n",0.93687,1,"S","S","Switch",0,78,"E",1,"SS"
4,2,14,"P","P","f",486.47,1,3,56,7,24,"i","j",0.83681,1,"S","L","Switch",0,79,"E",1,"LS"
4,2,15,"P","P","f",619.7,1,2,56,9,24,"i","j",0.8694,1,"L","S","Repeat",0,80,"E",0,"SL"
4,2,16,"P","P","f",603.03,1,9,24,3,56,"i","n",0.62076,1,"S","S","Repeat",0,81,"E",0,"SS"
4,2,17,"N","N","d",619.73,0,9,56,2,24,"c","j",1.97092,1,"S","L","Switch",0,82,"E",1,"LS"
4,2,18,"N","N","d",519.74,0,3,24,9,56,"c","n",0.61963,1,"S","L","Repeat",0,83,"E",0,"LS"
4,2,19,"N","N","d",536.29,0,8,56,4,24,"c","j",1.00417,1,"S","L","Repeat",0,84,"E",0,"LS"
4,2,20,"N","N","d",653,0,8,24,3,56,"i","j",1.67152,1,"L","S","Repeat",0,85,"E",0,"SL"
4,2,21,"P","P","f",953.02,1,4,24,7,56,"c","n",0.47025,1,"L","L","Switch",0,86,"E",1,"LL"
4,2,22,"N","N","d",703.24,0,9,56,3,24,"c","j",1.10347,1,"S","S","Switch",0,87,"E",1,"SS"
4,2,23,"N","N","d",903.55,0,8,24,4,56,"i","j",0.80382,1,"S","S","Repeat",0,88,"E",0,"SS"
4,2,24,"N","N","d",486.35,0,8,24,3,56,"i","j",0.55323,1,"S","L","Repeat",0,89,"E",0,"LS"
4,2,25,"N","N","d",568.9,0,4,24,8,56,"c","n",0.98669,1,"L","L","Repeat",0,90,"E",0,"LL"
4,2,26,"P","P","f",870.09,1,7,24,2,56,"i","n",0.46883,1,"L","S","Switch",0,91,"E",1,"SL"
4,2,27,"N","N","d",619.62,0,4,56,7,24,"i","n",0.7197,1,"L","S","Switch",0,92,"E",1,"SL"
4,2,28,"P","P","f",619.82,1,3,56,8,24,"i","j",0.46881,1,"L","L","Switch",0,93,"E",1,"LL"
4,2,29,"N","N","d",853.28,0,8,24,4,56,"i","j",1.72141,1,"L","S","Switch",0,94,"E",1,"SL"
4,2,30,"N","N","d",584.24,0,2,24,7,56,"c","n",1.70439,1,"L","S","Repeat",0,95,"E",0,"SL"
4,2,31,"P","P","f",836.59,1,7,56,3,24,"c","j",2.17198,1,"S","S","Switch",0,96,"E",1,"SS"
4,2,32,"N","N","d",753.2,0,9,56,4,24,"c","j",1.55434,1,"L","S","Switch",0,97,"E",1,"SL"
4,2,33,"P","P","f",570.01,1,3,24,9,56,"c","n",2.20522,1,"S","L","Switch",0,98,"E",1,"LS"
4,2,34,"N","N","d",551.03,0,4,56,8,24,"i","n",0.80388,1,"L","L","Switch",0,99,"E",1,"LL"
4,2,35,"N","N","d",469.87,0,3,56,7,24,"i","n",0.57001,1,"L","L","Repeat",0,100,"E",0,"LL"
4,2,36,"P","P","f",753.49,1,2,56,7,24,"i","j",1.33694,1,"S","S","Switch",0,101,"E",1,"SS"
4,2,37,"P","P","f",536.36,1,3,24,7,56,"c","n",0.45331,1,"S","S","Repeat",0,102,"E",0,"SS"
4,2,38,"P","P","f",600.87,1,2,56,7,24,"i","j",0.451,1,"S","S","Repeat",0,103,"E",0,"SS"
4,2,39,"P","P","f",386.05,1,9,56,3,24,"c","j",0.50294,1,"S","S","Repeat",0,104,"E",0,"SS"
4,2,40,"P","P","f",384.15,1,8,56,4,24,"c","j",0.46949,1,"L","S","Repeat",0,105,"E",0,"SL"
4,2,41,"P","P","f",736.4,1,2,24,8,56,"c","n",0.48632,1,"L","S","Repeat",0,106,"E",0,"SL"
4,2,42,"P","P","f",452.57,1,4,24,9,56,"c","n",0.53632,1,"S","L","Repeat",0,107,"E",0,"LS"
4,2,43,"P","P","f",452.63,1,3,24,7,56,"c","n",0.55321,1,"L","L","Repeat",0,108,"E",0,"LL"
4,2,44,"P","P","f",302.81,1,7,24,2,56,"i","n",0.37013,1,"L","L","Repeat",0,109,"E",0,"LL"
4,2,45,"P","P","f",535.59,1,4,56,7,24,"i","j",0.47013,1,"S","L","Repeat",0,110,"E",0,"LS"
4,2,46,"N","N","d",953.65,0,3,24,8,56,"c","n",0.87053,1,"S","L","Switch",0,111,"E",1,"LS"
4,2,47,"P","P","f",736.54,1,7,56,2,24,"c","j",0.48584,1,"S","L","Switch",0,112,"E",1,"LS"
4,2,48,"P","P","f",802.64,1,8,24,3,56,"i","n",0.47033,1,"L","S","Repeat",0,113,"E",0,"SL"
4,2,49,"N","N","d",569.49,0,4,56,7,24,"i","n",0.87045,1,"S","L","Switch",0,114,"E",1,"LS"
4,2,50,"N","N","d",469.78,0,3,56,9,24,"i","n",0.51944,1,"S","S","Repeat",0,115,"E",0,"SS"
4,2,51,"P","P","f",653.39,1,9,24,4,56,"i","n",0.77027,1,"S","S","Switch",0,116,"E",1,"SS"
4,2,52,"N","N","d",586.39,0,9,24,2,56,"i","j",0.82015,1,"L","L","Switch",0,117,"E",1,"LL"
4,2,53,"P","P","f",402.92,1,4,24,7,56,"c","n",0.53607,1,"L","S","Switch",0,118,"E",1,"SL"
4,2,54,"P","P","f",569.83,1,9,56,2,24,"c","j",0.76997,1,"L","L","Repeat",0,119,"E",0,"LL"
4,2,55,"P","P","f",602.83,1,4,56,8,24,"i","j",0.43635,1,"L","L","Repeat",0,120,"E",0,"LL"
4,2,56,"N","N","d",585.9,0,9,24,2,56,"i","j",0.55276,1,"S","L","Switch",0,121,"E",1,"LS"
4,2,57,"N","N","d",920.06,0,7,56,3,24,"c","j",1.72074,1,"S","S","Repeat",0,122,"E",0,"SS"
4,2,58,"P","P","f",819.98,1,7,56,2,24,"c","j",1.02077,1,"L","S","Switch",0,123,"E",1,"SL"
4,2,59,"N","N","d",702.89,0,7,56,3,24,"c","j",0.47001,1,"L","L","Switch",0,124,"E",1,"LL"
4,2,60,"P","P","f",719.96,1,8,24,4,56,"i","n",1.18768,1,"L","L","Switch",0,125,"E",1,"LL"
4,2,61,"N","N","d",686.55,0,2,24,7,56,"c","n",0.87057,1,"L","L","Switch",0,126,"E",1,"LL"
4,2,62,"P","P","f",1069.84,1,8,56,3,24,"c","j",1.07118,1,"L","L","Switch",0,127,"E",1,"LL"
4,2,63,"N","N","d",719.97,0,2,24,8,56,"c","n",1.13701,1,"S","S","Switch",0,128,"E",1,"SS"
4,2,64,"N","N","d",619.28,0,3,56,9,24,"i","n",0.53638,1,"L","S","Repeat",0,129,"E",0,"SL"
4,2,65,"P","P","f",570.15,1,2,56,9,24,"i","n",3.30662,0,"L","S","Switch",0,130,"E",1,"SL"
4,3,2,"P","P","f",686.71,1,2,24,9,56,"c","n",0.56962,1,"S","L","Repeat",1,132,"E",0,"LS"
4,3,3,"P","P","f",603.33,1,3,56,7,24,"i","j",0.48653,1,"L","L","Repeat",0,133,"E",0,"LL"
4,3,4,"N","N","d",553.59,0,8,24,2,56,"i","j",1.03791,1,"S","S","Switch",0,134,"E",1,"SS"
4,3,5,"P","P","f",519.85,1,4,56,8,24,"i","j",0.40204,1,"L","L","Switch",0,135,"E",1,"LL"
4,3,6,"P","P","f",436.17,1,8,56,2,24,"c","j",0.45353,1,"L","L","Repeat",0,136,"E",0,"LL"
4,3,7,"P","P","f",552.54,1,9,24,3,56,"i","n",0.47,1,"S","S","Repeat",0,137,"E",0,"SS"
4,3,8,"P","P","f",486.14,1,7,56,4,24,"c","j",0.45334,1,"L","S","Repeat",0,138,"E",0,"SL"
4,3,9,"N","N","d",585.91,0,8,56,3,24,"c","j",0.85353,1,"L","S","Switch",0,139,"E",1,"SL"
4,3,10,"N","N","d",469.55,0,4,56,8,24,"i","n",0.60331,1,"S","L","Repeat",0,140,"E",0,"LS"
4,3,11,"N","N","d",536.4,0,3,24,7,56,"c","n",0.48625,1,"S","L","Repeat",0,141,"E",0,"LS"
4,3,12,"N","N","d",485.77,0,9,56,4,24,"c","j",0.48614,1,"L","L","Repeat",0,142,"E",0,"LL"
4,3,13,"N","N","d",452.53,0,7,24,2,56,"i","j",0.66997,1,"S","S","Repeat",0,143,"E",0,"SS"
4,3,14,"N","N","d",469.67,0,8,56,4,24,"c","j",0.80319,1,"L","S","Repeat",0,144,"E",0,"SL"
4,3,15,"P","P","f",803.16,1,8,24,2,56,"i","n",2.00473,1,"L","S","Switch",0,145,"E",1,"SL"
4,3,16,"P","P","f",585.89,1,4,56,7,24,"i","j",0.98459,1,"L","S","Repeat",0,146,"E",0,"SL"
4,3,17,"P","P","f",453,1,2,24,8,56,"c","n",0.45284,1,"S","S","Repeat",0,147,"E",0,"SS"
4,3,18,"N","N","f",386.12,0,8,56,4,24,"c","j",0.6864,1,"S","L","Switch",0,148,"E",1,"LS"
4,3,19,"P","P","f",1003.89,1,3,24,7,56,"c","n",0.45268,1,"L","L","Switch",0,149,"E",1,"LL"
4,3,20,"N","N","d",553.08,0,2,56,9,24,"i","n",1.88865,1,"S","L","Switch",0,150,"E",1,"LS"
4,3,21,"P","P","f",502.74,1,8,56,4,24,"c","j",0.67022,1,"L","L","Switch",0,151,"E",1,"LL"
4,3,22,"N","N","d",536.14,0,9,56,2,24,"c","j",1.07004,1,"L","L","Switch",0,152,"E",1,"LL"
4,3,23,"P","P","f",502.61,1,8,56,3,24,"c","j",1.42119,1,"L","S","Switch",0,153,"E",1,"SL"
4,3,24,"P","P","f",802.74,1,8,24,4,56,"i","n",2.25514,1,"L","S","Repeat",0,154,"E",0,"SL"
4,3,25,"N","N","d",586.41,0,3,24,7,56,"c","n",0.48562,1,"L","S","Switch",0,155,"E",1,"SL"
4,3,26,"N","N","d",535.92,0,7,24,4,56,"i","j",1.05419,1,"L","S","Repeat",0,156,"E",0,"SL"
4,3,27,"P","P","f",686.32,1,2,56,9,24,"i","j",0.41931,1,"S","L","Switch",0,157,"E",1,"LS"
4,3,28,"P","P","f",419.27,1,3,24,8,56,"c","n",0.38658,1,"L","L","Repeat",0,158,"E",0,"LL"
4,3,29,"N","N","d",519.53,0,9,24,2,56,"i","j",0.6869,1,"S","L","Switch",0,159,"E",1,"LS"
4,3,30,"P","P","f",653.27,1,4,24,9,56,"c","n",0.46937,1,"L","S","Switch",0,160,"E",1,"SL"
4,3,31,"N","N","d",903.57,0,3,24,9,56,"c","n",1.22025,1,"L","L","Switch",0,161,"E",1,"LL"
4,3,32,"N","N","d",737.16,0,2,56,8,24,"i","n",1.37054,1,"L","L","Repeat",0,162,"E",0,"LL"
4,3,33,"P","P","f",452.63,1,4,56,8,24,"i","j",0.45348,1,"L","S","Switch",0,163,"E",1,"SL"
4,3,34,"N","N","d",586.16,0,2,56,8,24,"i","n",1.00074,1,"S","S","Switch",0,164,"E",1,"SS"
4,3,35,"N","N","d",620.01,0,3,24,8,56,"c","n",0.50227,1,"S","S","Repeat",0,165,"E",0,"SS"
4,3,36,"P","P","f",518.99,1,2,56,7,24,"i","j",0.40225,1,"S","S","Switch",0,166,"E",1,"SS"
4,3,37,"P","P","f",486.1,1,7,56,4,24,"c","j",0.48611,1,"S","L","Repeat",0,167,"E",0,"LS"
4,3,38,"N","N","d",469.04,0,3,24,7,56,"c","n",0.56988,1,"S","L","Switch",0,168,"E",1,"LS"
4,3,39,"N","N","d",753.23,0,4,56,9,24,"i","n",0.72055,1,"L","S","Repeat",0,169,"E",0,"SL"
4,3,40,"N","N","d",335.96,0,9,56,3,24,"c","j",0.4361,1,"S","S","Repeat",0,170,"E",0,"SS"
4,3,41,"N","N","d",469.22,0,9,24,2,56,"i","n",0.9703,0,"L","L","Repeat",0,171,"E",0,"LL"
4,3,42,"N","N","d",636.5,0,8,24,3,56,"i","j",0.70353,1,"S","L","Repeat",1,172,"E",0,"LS"
4,3,43,"N","N","d",1804.29,0,4,56,8,24,"i","n",0.56968,1,"S","S","Repeat",0,173,"E",0,"SS"
4,3,44,"N","N","d",386.01,0,9,56,3,24,"c","j",0.55323,1,"S","L","Repeat",0,174,"E",0,"LS"
4,3,45,"P","P","f",520.25,1,8,24,4,56,"i","n",0.4528,1,"S","S","Switch",0,175,"E",1,"SS"
4,3,46,"N","N","d",586.43,0,3,24,9,56,"c","n",0.63675,1,"S","S","Switch",0,176,"E",1,"SS"
4,3,47,"N","N","d",519.49,0,2,24,9,56,"c","n",0.45294,1,"L","S","Repeat",0,177,"E",0,"SL"
4,3,48,"N","N","d",503.27,0,4,24,8,56,"c","n",0.41952,1,"L","L","Repeat",0,178,"E",0,"LL"
4,3,49,"P","P","f",619.92,1,9,56,3,24,"c","j",0.47019,1,"S","L","Switch",0,179,"E",1,"LS"
4,3,50,"P","P","f",603.1,1,4,56,9,24,"i","j",0.45068,1,"S","L","Repeat",0,180,"E",0,"LS"
4,3,51,"P","P","f",1070.28,1,8,24,2,56,"i","n",0.38421,1,"L","L","Repeat",0,181,"E",0,"LL"
4,3,52,"N","N","d",536.19,0,8,56,4,24,"c","j",0.65317,1,"S","S","Switch",0,182,"E",1,"SS"
4,3,53,"P","P","d",586.68,1,3,24,9,56,"c","n",0.61958,1,"S","L","Switch",0,183,"E",1,"LS"
4,3,54,"P","P","f",2221.65,1,2,56,9,24,"i","n",0.92047,0,"S","S","Repeat",0,184,"E",0,"SS"
4,3,55,"N","N","d",769.92,0,7,24,3,56,"i","j",1.10395,1,"L","S","Switch",1,185,"E",1,"SL"
4,3,56,"P","P","f",569.62,1,2,24,7,56,"c","n",0.66984,1,"S","S","Switch",0,186,"E",1,"SS"
4,3,57,"P","P","f",535.66,1,9,56,4,24,"c","j",0.43636,1,"S","S","Repeat",0,187,"E",0,"SS"
4,3,58,"N","N","d",636.54,0,3,56,7,24,"i","n",1.53687,1,"L","L","Switch",0,188,"E",1,"LL"
4,3,59,"P","P","f",486.4,1,9,24,4,56,"i","n",0.38575,1,"L","L","Switch",0,189,"E",1,"LL"
4,3,60,"N","N","d",569.68,0,8,24,3,56,"i","j",0.90433,1,"L","L","Switch",0,190,"E",1,"LL"
4,3,61,"P","P","f",2171.41,1,8,56,4,24,"c","j",0.55374,1,"S","S","Switch",0,191,"E",1,"SS"
4,3,62,"P","P","f",453.29,1,7,24,3,56,"i","n",0.36987,1,"S","L","Repeat",0,192,"E",0,"LS"
4,3,63,"N","N","d",536,0,4,56,7,24,"i","n",0.81833,1,"L","S","Switch",0,193,"E",1,"SL"
4,3,64,"P","P","d",452.98,1,7,24,3,56,"i","n",0.93689,1,"S","L","Switch",0,194,"E",1,"LS"
4,3,65,"P","P","f",552.98,1,2,24,8,56,"c","n",0.76973,1,"L","S","Repeat",0,195,"E",0,"SL"
4,4,2,"P","P","f",636.67,1,8,24,4,56,"i","n",0.55278,1,"L","L","Switch",0,197,"E",1,"LL"
4,4,3,"P","P","f",552.43,1,3,56,7,24,"i","j",0.46988,1,"S","L","Repeat",0,198,"E",0,"LS"
4,4,4,"N","N","d",536.36,0,2,56,8,24,"i","n",0.72002,1,"S","S","Switch",0,199,"E",1,"SS"
4,4,5,"P","P","f",617.72,1,3,56,9,24,"i","n",1.50419,0,"L","L","Switch",0,200,"E",1,"LL"
4,4,6,"N","N","d",769.99,0,8,24,4,56,"i","j",0.97005,1,"S","S","Switch",1,201,"E",1,"SS"
4,4,7,"N","N","d",719.86,0,2,56,9,24,"i","n",0.5042,1,"S","S","Repeat",0,202,"E",0,"SS"
4,4,8,"N","N","d",569.76,0,3,56,8,24,"i","n",0.48473,1,"L","S","Repeat",0,203,"E",0,"SL"
4,4,9,"N","N","d",386.15,0,9,24,2,56,"i","j",0.53673,1,"L","L","Repeat",0,204,"E",0,"LL"
4,4,10,"N","N","d",602.24,0,4,24,8,56,"c","n",0.53632,1,"L","S","Repeat",0,205,"E",0,"SL"
4,4,11,"N","N","d",436.11,0,8,56,2,24,"c","n",0.48619,0,"S","L","Repeat",0,206,"E",0,"LS"
4,4,12,"N","N","d",669.84,0,8,24,3,56,"i","j",0.7197,1,"S","L","Repeat",1,207,"E",0,"LS"
4,4,13,"N","N","d",502.73,0,7,24,4,56,"i","j",0.53673,1,"L","S","Repeat",0,208,"E",0,"SL"
4,4,14,"N","N","d",453.05,0,7,56,2,24,"c","j",0.42007,1,"L","L","Repeat",0,209,"E",0,"LL"
4,4,15,"P","P","f",853.33,1,9,24,3,56,"i","j",1.27085,0,"S","S","Switch",0,210,"E",1,"SS"
4,4,16,"P","P","f",619.86,1,2,24,7,56,"c","n",0.45245,1,"L","S","Repeat",1,211,"E",0,"SL"
4,4,17,"N","N","d",869.88,0,7,56,4,24,"c","j",2.07091,1,"S","L","Switch",0,212,"E",1,"LS"
4,4,18,"N","N","d",636.66,0,8,56,3,24,"c","j",1.03763,1,"L","S","Repeat",0,213,"E",0,"SL"
4,4,19,"N","N","d",536.48,0,9,24,2,56,"i","j",0.63407,1,"S","S","Repeat",0,214,"E",0,"SS"
4,4,20,"P","P","f",753.47,1,3,24,7,56,"c","n",0.77015,1,"L","L","Switch",0,215,"E",1,"LL"
4,4,21,"N","N","d",653.17,0,4,56,7,24,"i","n",0.85305,1,"S","L","Switch",0,216,"E",1,"LS"
4,4,22,"P","P","f",553,1,3,24,7,56,"c","j",0.38574,0,"S","S","Switch",0,217,"E",1,"SS"
4,4,23,"N","N","d",1103.97,0,9,56,4,24,"c","n",1.30411,0,"S","S","Switch",1,218,"E",1,"SS"
4,4,24,"P","P","f",920.25,1,7,24,3,56,"i","n",2.92176,1,"L","S","Switch",1,219,"E",1,"SL"
4,4,25,"N","N","d",769.81,0,8,56,2,24,"c","j",0.91984,1,"L","L","Switch",0,220,"E",1,"LL"
4,4,26,"P","P","f",519.64,1,4,24,7,56,"c","n",0.56988,1,"L","S","Switch",0,221,"E",1,"SL"
4,4,27,"P","P","f",502.82,1,8,24,2,56,"i","n",0.45281,1,"L","L","Repeat",0,222,"E",0,"LL"
4,4,28,"P","P","f",803.34,1,8,56,4,24,"c","j",0.90348,1,"S","L","Repeat",0,223,"E",0,"LS"
4,4,29,"P","P","f",703.12,1,2,24,8,56,"c","n",0.73597,1,"L","L","Repeat",0,224,"E",0,"LL"
4,4,30,"N","N","d",852.84,0,8,24,4,56,"i","j",0.98734,1,"S","L","Switch",0,225,"E",1,"LS"
4,4,31,"N","N","d",553.01,0,2,24,7,56,"c","n",0.53654,1,"S","L","Repeat",0,226,"E",0,"LS"
4,4,32,"P","P","f",686.68,1,7,24,3,56,"i","n",0.78639,1,"S","L","Switch",0,227,"E",1,"LS"
4,4,33,"N","N","d",501.01,0,4,24,7,56,"c","n",0.48623,1,"S","S","Switch",0,228,"E",1,"SS"
4,4,34,"P","P","f",903.54,1,9,56,3,24,"c","j",0.51929,1,"S","L","Switch",0,229,"E",1,"LS"
4,4,35,"P","P","f",636.36,1,8,24,4,56,"i","j",2.0363,0,"L","S","Repeat",0,230,"E",0,"SL"
4,4,36,"P","P","f",886.55,1,2,56,9,24,"i","j",1.01966,1,"L","L","Repeat",1,231,"E",0,"LL"
4,4,37,"P","P","f",571.04,1,9,56,3,24,"c","j",0.70277,1,"L","S","Repeat",0,232,"E",0,"SL"
4,4,38,"P","P","f",619.43,1,4,56,9,24,"i","j",0.48572,1,"S","S","Repeat",0,233,"E",0,"SS"
4,4,39,"P","P","f",419.56,1,2,24,7,56,"c","n",0.45054,1,"S","L","Repeat",0,234,"E",0,"LS"
4,4,40,"P","P","f",486.19,1,9,56,3,24,"c","j",0.4529,1,"S","S","Repeat",0,235,"E",0,"SS"
4,4,41,"N","N","d",820.16,0,8,24,2,56,"i","j",0.53616,1,"L","L","Switch",0,236,"E",1,"LL"
4,4,42,"P","P","f",634.43,1,3,56,7,24,"i","j",0.6868,1,"L","S","Switch",0,237,"E",1,"SL"
4,4,43,"N","N","d",770.28,0,2,56,7,24,"i","n",0.46766,1,"L","L","Switch",0,238,"E",1,"LL"
4,4,44,"N","N","d",936.78,0,3,24,8,56,"c","n",0.48646,1,"S","S","Repeat",0,239,"E",0,"SS"
4,4,45,"P","P","f",369.52,1,8,56,4,24,"c","j",0.3693,1,"L","S","Switch",0,240,"E",1,"SL"
4,4,46,"P","P","f",469.27,1,9,24,3,56,"i","n",0.48688,1,"S","L","Repeat",0,241,"E",0,"LS"
4,4,47,"P","P","f",569.43,1,9,24,2,56,"i","n",0.55145,1,"S","S","Repeat",0,242,"E",0,"SS"
4,4,48,"P","P","f",569.18,1,7,56,4,24,"c","j",0.43664,1,"L","L","Repeat",0,243,"E",0,"LL"
4,4,49,"P","P","f",736.48,1,3,56,9,24,"i","j",0.63627,1,"L","S","Repeat",0,244,"E",0,"SL"
4,4,50,"N","N","d",636.64,0,4,24,9,56,"c","n",0.90318,1,"L","S","Switch",0,245,"E",1,"SL"
4,4,51,"N","N","d",619.78,0,2,56,7,24,"i","n",1.20381,1,"L","L","Repeat",0,246,"E",0,"LL"
4,4,52,"P","P","f",603.05,1,3,24,8,56,"c","n",2.28675,1,"S","L","Switch",0,247,"E",1,"LS"
4,4,53,"N","N","d",636.47,0,2,24,7,56,"c","n",0.50302,1,"L","L","Switch",0,248,"E",1,"LL"
4,4,54,"P","P","f",502.98,1,4,56,9,24,"i","j",1.30353,1,"S","L","Switch",0,249,"E",1,"LS"
4,4,55,"N","N","f",552.71,0,3,24,9,56,"c","n",1.78781,1,"S","L","Switch",0,250,"E",1,"LS"
4,4,56,"P","P","f",636.63,1,7,56,4,24,"c","j",1.35391,1,"L","L","Switch",0,251,"E",1,"LL"
4,4,57,"N","N","d",720.05,0,7,24,2,56,"i","j",1.33724,1,"L","S","Switch",0,252,"E",1,"SL"
4,4,58,"P","P","f",619.71,1,4,56,7,24,"i","j",1.28766,1,"S","S","Switch",0,253,"E",1,"SS"
4,4,59,"N","N","d",486.42,0,8,56,2,24,"c","j",1.77112,1,"L","S","Switch",0,254,"E",1,"SL"
4,4,60,"P","P","f",603.28,1,9,56,3,24,"c","j",0.50314,1,"S","S","Switch",0,255,"E",1,"SS"
4,4,61,"P","P","f",536.21,1,4,24,9,56,"c","n",0.40331,1,"S","S","Repeat",0,256,"E",0,"SS"
4,4,62,"N","N","d",703.23,0,3,56,8,24,"i","n",1.0364,1,"L","S","Switch",0,257,"E",1,"SL"
4,4,63,"N","N","d",436,0,4,24,8,56,"c","n",0.52011,1,"L","L","Repeat",0,258,"E",0,"LL"
4,4,64,"N","N","d",903.09,0,3,56,8,24,"i","n",1.03723,1,"S","L","Repeat",0,259,"E",0,"LS"
4,4,65,"N","N","d",386.12,0,9,56,4,24,"c","j",0.51883,1,"S","S","Repeat",0,260,"E",0,"SS"
4,5,2,"P","P","f",453,1,9,56,2,24,"c","j",0.43682,1,"S","L","Repeat",0,262,"E",0,"LS"
4,5,3,"P","P","f",519.59,1,4,24,8,56,"c","n",0.45332,1,"L","S","Repeat",0,263,"E",0,"SL"
4,5,4,"P","P","f",486.22,1,2,24,8,56,"c","n",0.40109,1,"L","L","Repeat",0,264,"E",0,"LL"
4,5,5,"N","N","f",536.52,0,9,56,3,24,"c","j",1.12084,1,"L","L","Switch",0,265,"E",1,"LL"
4,5,6,"P","P","f",736.99,1,4,56,7,24,"i","j",0.50308,1,"S","L","Switch",0,266,"E",1,"LS"
4,5,7,"P","P","f",636.28,1,7,24,2,56,"i","n",0.53613,1,"L","S","Repeat",0,267,"E",0,"SL"
4,5,8,"P","P","f",435.62,1,3,56,7,24,"i","j",0.38665,1,"L","L","Repeat",0,268,"E",0,"LL"
4,5,9,"N","N","d",653.32,0,9,24,2,56,"i","j",0.75381,1,"S","S","Switch",0,269,"E",1,"SS"
4,5,10,"P","P","f",619.81,1,4,56,7,24,"i","j",1.1686,1,"L","L","Switch",0,270,"E",1,"LL"
4,5,11,"N","N","d",536.48,0,3,24,8,56,"c","n",1.02078,1,"S","L","Switch",0,271,"E",1,"LS"
4,5,12,"P","P","f",569.7,1,4,24,7,56,"c","n",1.32069,1,"S","L","Switch",0,272,"E",1,"LS"
4,5,13,"P","P","f",686.71,1,7,24,3,56,"i","n",1.02064,1,"S","S","Repeat",0,273,"E",0,"SS"
4,5,14,"N","N","d",336.26,0,4,56,7,24,"i","n",0.4698,1,"L","L","Switch",0,274,"E",1,"LL"
4,5,15,"P","P","f",436.35,1,7,24,3,56,"i","n",0.41905,1,"L","L","Switch",0,275,"E",1,"LL"
4,5,16,"P","P","f",886.69,1,2,56,7,24,"i","j",0.45359,1,"S","L","Repeat",0,276,"E",0,"LS"
4,5,17,"N","N","d",784.65,0,9,24,3,56,"i","n",0.68678,0,"L","S","Switch",0,277,"E",1,"SL"
4,5,18,"N","N","d",786.68,0,9,56,2,24,"c","j",0.46927,1,"L","S","Repeat",1,278,"E",0,"SL"
4,5,19,"P","P","f",469.24,1,7,56,4,24,"c","j",0.88434,1,"L","L","Switch",0,279,"E",1,"LL"
4,5,20,"P","P","f",485.84,1,2,24,9,56,"c","n",0.37009,1,"S","S","Repeat",0,280,"E",0,"SS"
4,5,21,"N","N","d",752.63,0,9,56,3,24,"c","j",0.50343,1,"S","L","Switch",0,281,"E",1,"LS"
4,5,22,"N","N","d",535.83,0,4,24,7,56,"c","n",0.40294,1,"S","L","Repeat",0,282,"E",0,"LS"
4,5,23,"N","N","d",502.36,0,2,24,8,56,"c","n",0.41994,1,"L","L","Repeat",0,283,"E",0,"LL"
4,5,24,"N","N","d",452.11,0,4,56,9,24,"i","n",1.10413,1,"S","S","Repeat",0,284,"E",0,"SS"
4,5,25,"P","P","f",617.66,1,2,56,8,24,"i","j",1.08672,1,"S","S","Switch",0,285,"E",1,"SS"
4,5,26,"N","N","d",502.96,0,4,56,7,24,"i","n",0.93645,1,"L","S","Switch",0,286,"E",1,"SL"
4,5,27,"P","P","f",620.25,1,7,56,3,24,"c","j",0.53615,1,"S","S","Switch",0,287,"E",1,"SS"
4,5,28,"N","N","d",586.38,0,7,24,4,56,"i","j",0.66951,1,"L","L","Switch",0,288,"E",1,"LL"
4,5,29,"P","P","f",486.36,1,2,24,7,56,"c","n",0.50092,1,"S","S","Switch",0,289,"E",1,"SS"
4,5,30,"P","P","f",552.79,1,3,56,7,24,"i","j",0.87028,1,"L","S","Repeat",0,290,"E",0,"SL"
4,5,31,"P","P","f",553.01,1,7,56,4,24,"c","j",0.42026,1,"L","S","Repeat",0,291,"E",0,"SL"
4,5,32,"P","P","f",653.18,1,8,56,3,24,"c","j",0.41951,1,"S","S","Repeat",0,292,"E",0,"SS"
4,5,33,"P","P","f",335.37,1,9,24,4,56,"i","n",0.40372,1,"L","L","Repeat",0,293,"E",0,"LL"
4,5,34,"N","N","d",603.35,0,3,56,8,24,"i","n",0.7372,1,"S","L","Switch",0,294,"E",1,"LS"
4,5,35,"P","P","f",519.33,1,7,24,4,56,"i","n",0.85339,1,"L","S","Switch",0,295,"E",1,"SL"
4,5,36,"N","N","d",586.24,0,3,24,9,56,"c","n",0.5367,1,"L","S","Switch",0,296,"E",1,"SL"
4,5,37,"N","N","d",586.32,0,2,56,7,24,"i","n",0.90338,1,"L","L","Repeat",0,297,"E",0,"LL"
4,5,38,"N","N","d",552.74,0,9,56,4,24,"c","j",0.85344,1,"L","L","Repeat",0,298,"E",0,"LL"
4,5,39,"N","N","d",652.82,0,8,24,3,56,"i","j",0.80318,1,"S","L","Repeat",0,299,"E",0,"LS"
4,5,40,"N","N","d",686.22,0,9,24,2,56,"i","j",0.58633,1,"L","S","Repeat",0,300,"E",0,"SL"
4,5,41,"N","N","d",886.27,0,4,24,9,56,"c","n",0.50332,1,"L","S","Repeat",0,301,"E",0,"SL"
4,5,42,"N","N","d",520.36,0,9,56,3,24,"c","j",0.60294,1,"S","L","Repeat",0,302,"E",0,"LS"
4,5,43,"P","P","d",469.29,1,9,56,4,24,"c","j",1.25376,1,"L","S","Switch",0,303,"E",1,"SL"
4,5,44,"N","N","d",870.07,0,3,24,8,56,"c","n",1.08668,1,"L","L","Switch",0,304,"E",1,"LL"
4,5,45,"P","P","f",1070.36,1,2,24,9,56,"c","n",0.73566,1,"L","L","Switch",0,305,"E",1,"LL"
4,5,46,"N","N","d",652.98,0,4,56,8,24,"i","n",0.60336,1,"S","S","Switch",0,306,"E",1,"SS"
4,5,47,"P","P","f",803.47,1,7,24,3,56,"i","j",0.75375,0,"S","S","Switch",0,307,"E",1,"SS"
4,5,48,"N","N","d",1353.97,0,8,24,4,56,"i","j",0.7032,1,"S","L","Switch",1,308,"E",1,"LS"
4,5,49,"N","N","d",953.61,0,2,24,9,56,"c","n",1.18682,1,"S","S","Repeat",0,309,"E",0,"SS"
4,5,50,"N","N","d",867.82,0,9,24,3,56,"i","j",1.95501,1,"L","L","Repeat",0,310,"E",0,"LL"
4,5,51,"N","N","d",570.06,0,7,24,2,56,"i","j",0.57017,1,"S","S","Repeat",0,311,"E",0,"SS"
4,5,52,"P","P","f",836.69,1,7,24,4,56,"i","n",1.20329,1,"S","L","Switch",0,312,"E",1,"LS"
4,5,53,"N","N","d",570.13,0,7,56,3,24,"c","j",1.18722,1,"L","S","Switch",0,313,"E",1,"SL"
4,5,54,"P","P","f",769.54,1,2,24,9,56,"c","n",0.95398,1,"L","S","Switch",0,314,"E",1,"SL"
4,5,55,"P","P","f",536.23,1,7,24,3,56,"i","n",0.53566,1,"S","L","Repeat",0,315,"E",0,"LS"
4,5,56,"N","N","d",519.72,0,9,56,2,24,"c","j",0.66976,1,"S","S","Switch",0,316,"E",1,"SS"
4,5,57,"P","P","f",486.13,1,9,56,4,24,"c","j",0.55309,1,"S","L","Switch",0,317,"E",1,"LS"
4,5,58,"P","P","f",953.6,1,3,56,9,24,"i","j",0.50372,1,"S","S","Repeat",0,318,"E",0,"SS"
4,5,59,"P","P","f",419.12,1,2,24,7,56,"c","n",0.70379,1,"S","L","Repeat",0,319,"E",0,"LS"
4,5,60,"N","N","d",720.17,0,3,24,7,56,"c","n",0.61999,1,"S","S","Switch",0,320,"E",1,"SS"
4,5,61,"N","N","d",551.38,0,4,56,9,24,"i","n",0.80372,1,"S","L","Repeat",0,321,"E",0,"LS"
4,5,62,"N","N","d",652.96,0,3,56,7,24,"i","n",0.63407,1,"L","S","Repeat",0,322,"E",0,"SL"
4,5,63,"N","N","d",352.52,0,8,56,2,24,"c","j",0.68743,1,"S","S","Repeat",0,323,"E",0,"SS"
4,5,64,"P","P","f",569.96,1,3,56,7,24,"i","j",0.51756,1,"L","S","Switch",0,324,"E",1,"SL"
4,5,65,"P","P","f",436.08,1,9,56,2,24,"c","j",0.47049,1,"L","L","Repeat",0,325,"E",0,"LL"
4,6,2,"N","N","d",537.07,0,8,24,2,56,"i","j",0.55386,1,"S","L","Repeat",0,327,"E",0,"LS"
4,6,3,"N","N","d",452.78,0,8,56,3,24,"c","j",1.08704,1,"S","S","Repeat",0,328,"E",0,"SS"
4,6,4,"P","P","f",636.48,1,4,56,7,24,"i","j",0.4857,1,"S","S","Switch",0,329,"E",1,"SS"
4,6,5,"N","N","d",686.8,0,9,24,2,56,"i","j",0.63691,1,"L","L","Switch",0,330,"E",1,"LL"
4,6,6,"P","P","f",519.33,1,4,56,7,24,"i","j",0.53583,1,"L","S","Switch",0,331,"E",1,"SL"
4,6,7,"P","P","f",836.81,1,2,56,8,24,"i","j",0.60289,1,"S","S","Repeat",0,332,"E",0,"SS"
4,6,8,"N","N","d",619.84,0,9,24,3,56,"i","j",0.51921,1,"S","L","Switch",0,333,"E",1,"LS"
4,6,9,"P","P","f",519.39,1,9,24,2,56,"i","n",0.73693,1,"S","L","Switch",0,334,"E",1,"LS"
4,6,10,"P","P","f",536.34,1,3,24,7,56,"c","n",0.48612,1,"L","L","Repeat",0,335,"E",0,"LL"
4,6,11,"N","N","d",486.93,0,4,56,8,24,"i","n",0.53698,1,"S","S","Switch",0,336,"E",1,"SS"
4,6,12,"P","P","f",536.38,1,8,56,3,24,"c","j",0.51985,1,"S","S","Switch",0,337,"E",1,"SS"
4,6,13,"P","P","f",602.58,1,9,24,2,56,"i","j",0.48665,0,"L","L","Repeat",0,338,"E",0,"LL"
4,6,14,"P","P","f",1053.11,1,8,24,3,56,"i","n",0.45325,1,"S","S","Repeat",1,339,"E",0,"SS"
4,6,15,"P","P","f",603.1,1,8,56,2,24,"c","j",0.43661,1,"L","S","Repeat",0,340,"E",0,"SL"
4,6,16,"N","N","d",553.1,0,3,24,8,56,"c","n",0.50362,1,"L","L","Switch",0,341,"E",1,"LL"
4,6,17,"N","N","d",519.4,0,4,24,9,56,"c","n",0.4696,1,"L","S","Repeat",0,342,"E",0,"SL"
4,6,18,"N","N","d",784.37,0,3,56,9,24,"i","n",0.48573,1,"S","S","Repeat",0,343,"E",0,"SS"
4,6,19,"N","N","d",502.65,0,7,24,2,56,"i","j",0.55367,1,"S","S","Repeat",0,344,"E",0,"SS"
4,6,20,"N","N","d",602.84,0,9,24,4,56,"i","j",1.13727,1,"L","L","Repeat",0,345,"E",0,"LL"
4,6,21,"P","P","f",686.46,1,8,24,2,56,"i","n",0.75375,1,"L","S","Switch",0,346,"E",1,"SL"
4,6,22,"N","N","d",803.12,0,4,56,8,24,"i","n",0.70316,1,"L","L","Switch",0,347,"E",1,"LL"
4,6,23,"P","P","f",586.29,1,3,24,7,56,"c","n",0.37015,1,"S","L","Switch",0,348,"E",1,"LS"
4,6,24,"N","N","d",637.01,0,9,56,2,24,"c","j",0.92016,1,"S","S","Switch",0,349,"E",1,"SS"
4,6,25,"P","P","f",736.61,1,8,56,4,24,"c","j",1.05437,1,"L","S","Switch",0,350,"E",1,"SL"
4,6,26,"N","N","d",653.4,0,3,56,7,24,"i","n",1.15469,1,"S","L","Switch",0,351,"E",1,"LS"
4,6,27,"P","P","f",1604.47,1,8,56,2,24,"c","j",1.2707,1,"L","L","Switch",0,352,"E",1,"LL"
4,6,28,"N","N","d",1254.04,0,7,24,4,56,"i","j",0.86852,1,"L","S","Switch",0,353,"E",1,"SL"
4,6,29,"P","P","f",802.81,1,3,24,9,56,"c","n",0.43691,1,"L","L","Switch",0,354,"E",1,"LL"
4,6,30,"P","P","f",486.78,1,8,24,4,56,"i","n",0.48628,1,"S","L","Repeat",0,355,"E",0,"LS"
4,6,31,"P","P","f",686.64,1,3,24,7,56,"c","n",0.48658,1,"S","S","Repeat",0,356,"E",0,"SS"
4,6,32,"N","N","d",569.79,0,8,56,4,24,"c","j",0.51992,1,"L","S","Switch",0,357,"E",1,"SL"
4,6,33,"N","N","d",419.48,0,8,56,2,24,"c","j",0.51984,1,"S","L","Repeat",0,358,"E",0,"LS"
4,6,34,"P","P","f",670.11,1,8,24,3,56,"i","n",1.02023,1,"L","L","Switch",0,359,"E",1,"LL"
4,6,35,"P","P","f",602.7,1,4,56,7,24,"i","j",1.05267,1,"L","S","Repeat",0,360,"E",0,"SL"
4,6,36,"P","P","f",436.06,1,2,24,7,56,"c","n",0.43404,1,"L","S","Repeat",0,361,"E",0,"SL"
4,6,37,"P","P","f",419.73,1,4,24,8,56,"c","n",0.45327,1,"S","L","Repeat",0,362,"E",0,"LS"
4,6,38,"N","N","f",452.92,0,3,24,9,56,"c","n",0.63675,1,"L","S","Switch",0,363,"E",1,"SL"
4,6,39,"N","N","d",518.79,0,2,56,8,24,"i","n",0.67047,1,"L","L","Repeat",0,364,"E",0,"LL"
4,6,40,"P","P","d",486.66,1,9,56,3,24,"c","n",0.46876,0,"S","L","Switch",0,365,"E",1,"LS"
4,6,41,"N","N","d",2488.65,0,4,24,9,56,"c","n",0.61961,1,"S","L","Switch",1,366,"E",1,"LS"
4,6,42,"P","P","f",369.42,1,2,24,8,56,"c","n",0.75324,1,"L","S","Switch",0,367,"E",1,"SL"
4,6,43,"P","P","f",619.76,1,7,24,3,56,"i","n",0.72045,1,"L","S","Repeat",0,368,"E",0,"SL"
4,6,44,"P","P","f",585.55,1,4,56,8,24,"i","j",0.50345,1,"L","L","Repeat",0,369,"E",0,"LL"
4,6,45,"N","N","d",653.2,0,7,56,2,24,"c","j",1.08765,1,"L","L","Switch",0,370,"E",1,"LL"
4,6,46,"N","N","d",1520.58,0,3,56,8,24,"i","n",1.57136,1,"L","S","Repeat",0,371,"E",0,"SL"
4,6,47,"N","N","d",402.72,0,2,56,8,24,"i","n",0.85396,1,"S","L","Repeat",0,372,"E",0,"LS"
4,6,48,"N","N","d",502.93,0,8,56,4,24,"c","j",1.0199,1,"L","S","Repeat",0,373,"E",0,"SL"
4,6,49,"P","P","f",603.72,1,2,56,7,24,"i","j",1.15345,1,"S","L","Switch",0,374,"E",1,"LS"
4,6,50,"N","N","d",617.73,0,3,56,7,24,"i","n",1.02013,1,"L","S","Switch",0,375,"E",1,"SL"
4,6,51,"P","P","f",569.29,1,4,24,8,56,"c","n",0.55351,1,"S","S","Switch",0,376,"E",1,"SS"
4,6,52,"P","P","f",2288.11,1,8,56,2,24,"c","j",0.40342,1,"S","L","Repeat",0,377,"E",0,"LS"
4,6,53,"P","P","f",569.78,1,7,56,4,24,"c","j",0.46976,1,"L","L","Repeat",0,378,"E",0,"LL"
4,6,54,"N","N","d",686.07,0,9,24,3,56,"i","j",0.60363,1,"S","S","Switch",0,379,"E",1,"SS"
4,6,55,"N","N","d",519.85,0,2,24,7,56,"c","n",0.4031,1,"L","L","Repeat",0,380,"E",0,"LL"
4,6,56,"N","N","d",485.96,0,4,24,9,56,"c","n",0.48688,1,"S","S","Repeat",0,381,"E",0,"SS"
4,6,57,"N","N","d",536.53,0,9,24,2,56,"i","j",0.46951,1,"L","S","Repeat",0,382,"E",0,"SL"
4,6,58,"P","P","f",519.86,1,7,24,4,56,"i","j",0.553,0,"S","S","Switch",0,383,"E",1,"SS"
4,6,59,"P","P","f",769.49,1,3,56,7,24,"i","j",0.45329,1,"S","L","Repeat",1,384,"E",0,"LS"
4,6,60,"N","N","d",586.36,0,8,56,4,24,"c","j",1.05395,1,"S","L","Switch",0,385,"E",1,"LS"
4,6,61,"P","P","f",769.92,1,3,56,9,24,"i","n",2.3553,0,"L","L","Switch",0,386,"E",1,"LL"
4,6,62,"P","P","f",1103.34,1,8,56,4,24,"c","j",0.45249,1,"S","S","Repeat",1,387,"E",0,"SS"
4,6,63,"N","N","d",569.68,0,3,24,9,56,"c","n",0.56969,1,"S","S","Switch",0,388,"E",1,"SS"
4,6,64,"N","N","d",719.27,0,4,24,8,56,"c","n",2.02104,1,"S","L","Repeat",0,389,"E",0,"LS"
4,6,65,"N","N","d",586.25,0,7,56,3,24,"c","j",1.12055,1,"L","L","Repeat",0,390,"E",0,"LL"
6,1,2,"N","N","f",1471.01,0,2,24,8,56,"c","n",0.88725,1,"S","S","Repeat",0,2,"E",0,"SS"
6,1,3,"N","N","f",1086.69,0,7,24,3,56,"i","j",1.47041,1,"S","L","Repeat",0,3,"E",0,"LS"
6,1,4,"N","N","f",1020.02,0,8,24,2,56,"i","j",1.45384,1,"S","S","Repeat",0,4,"E",0,"SS"
6,1,5,"N","N","f",1103.84,0,4,24,7,56,"c","n",0.76954,1,"L","S","Repeat",0,5,"E",0,"SL"
6,1,6,"P","P","d",1002.82,1,7,56,2,24,"c","j",0.68653,1,"L","S","Switch",0,6,"E",1,"SL"
6,1,7,"N","N","f",1170.66,0,9,24,4,56,"i","j",0.93734,1,"S","S","Switch",0,7,"E",1,"SS"
6,1,8,"P","P","d",1087.1,1,2,56,9,24,"i","j",0.90308,1,"S","L","Switch",0,8,"E",1,"LS"
6,1,9,"N","N","f",886.56,0,4,56,7,24,"i","n",1.0369,1,"L","S","Switch",0,9,"E",1,"SL"
6,1,10,"N","N","f",903.08,0,2,56,7,24,"i","n",0.78491,1,"S","S","Repeat",0,10,"E",0,"SS"
6,1,11,"P","P","d",870.52,1,8,24,3,56,"i","n",1.28703,1,"S","L","Switch",0,11,"E",1,"LS"
6,1,12,"P","P","d",951.52,1,9,56,2,24,"c","n",1.30364,0,"L","L","Repeat",0,12,"E",0,"LL"
6,1,13,"P","P","d",1537.01,1,3,56,8,24,"i","j",0.95383,1,"L","S","Repeat",1,13,"E",0,"SL"
6,1,14,"N","N","f",753.14,0,2,56,8,24,"i","n",0.63693,1,"S","S","Switch",0,14,"E",1,"SS"
6,1,15,"N","N","f",869.44,0,4,56,8,24,"i","n",1.72046,1,"L","L","Repeat",0,15,"E",0,"LL"
6,1,16,"N","N","f",920.13,0,3,24,8,56,"c","n",0.77027,1,"S","L","Repeat",0,16,"E",0,"LS"
6,1,17,"P","P","d",820.07,1,9,24,2,56,"i","n",1.18681,1,"L","S","Switch",0,17,"E",1,"SL"
6,1,18,"N","N","f",1069.5,0,9,56,4,24,"c","j",2.07177,1,"S","S","Switch",0,18,"E",1,"SS"
6,1,19,"P","P","d",1086.08,1,2,56,8,24,"i","j",1.68759,1,"L","L","Switch",0,19,"E",1,"LL"
6,1,20,"P","P","d",1737.84,1,9,24,3,56,"i","n",0.93581,1,"S","L","Repeat",0,20,"E",0,"LS"
6,1,21,"N","N","f",753.31,0,9,24,4,56,"i","j",1.18658,1,"L","L","Switch",0,21,"E",1,"LL"
6,1,22,"P","P","d",836.74,1,9,56,3,24,"c","j",1.32122,1,"S","S","Switch",0,22,"E",1,"SS"
6,1,23,"P","P","d",1286.47,1,4,56,7,24,"i","j",1.15301,1,"S","S","Repeat",0,23,"E",0,"SS"
6,1,24,"P","P","d",1270.19,1,3,24,7,56,"c","n",1.27026,1,"S","S","Repeat",0,24,"E",0,"SS"
6,1,25,"N","N","f",736.61,0,2,56,8,24,"i","n",0.90273,1,"L","L","Switch",0,25,"E",1,"LL"
6,1,26,"P","P","d",936.83,1,3,24,7,56,"c","n",0.98706,1,"L","S","Switch",0,26,"E",1,"SL"
6,1,27,"P","P","d",1187.04,1,4,56,9,24,"i","j",0.66991,1,"L","L","Repeat",0,27,"E",0,"LL"
6,1,28,"N","N","f",987.44,0,8,24,2,56,"i","n",1.05394,0,"L","S","Switch",0,28,"E",1,"SL"
6,1,29,"P","P","d",2004.69,1,3,56,7,24,"i","j",0.80249,1,"S","S","Switch",1,29,"E",1,"SS"
6,1,30,"P","P","d",886.14,1,9,24,4,56,"i","n",1.06995,1,"L","L","Repeat",0,30,"E",0,"LL"
6,1,31,"N","N","f",803.22,0,8,24,2,56,"i","j",0.71999,1,"S","L","Switch",0,31,"E",1,"LS"
6,1,32,"P","P","d",885.02,1,7,56,4,24,"c","j",1.77086,1,"S","L","Switch",0,32,"E",1,"LS"
6,1,33,"P","P","d",986.28,1,9,56,2,24,"c","j",0.53661,1,"S","L","Repeat",0,33,"E",0,"LS"
6,1,34,"P","P","d",1034.86,1,9,56,4,24,"c","j",2.05475,1,"S","S","Repeat",0,34,"E",0,"SS"
6,1,35,"P","P","d",901.2,1,9,24,3,56,"i","n",0.95335,1,"L","S","Repeat",0,35,"E",0,"SL"
6,1,36,"N","N","f",770.02,0,4,24,8,56,"c","n",1.66912,1,"S","L","Switch",0,36,"E",1,"LS"
6,1,37,"N","N","f",819.75,0,7,24,2,56,"i","j",1.00368,1,"L","L","Repeat",0,37,"E",0,"LL"
6,1,38,"P","P","d",1003.86,1,9,24,3,56,"i","n",0.66982,1,"L","L","Switch",0,38,"E",1,"LL"
6,1,39,"N","N","f",769.93,0,8,56,4,24,"c","j",0.56955,1,"S","L","Switch",0,39,"E",1,"LS"
6,1,40,"N","N","f",836.46,0,8,24,2,56,"i","j",1.42069,1,"L","S","Repeat",0,40,"E",0,"SL"
6,1,41,"P","P","d",820.33,1,3,24,8,56,"c","n",0.65363,1,"S","S","Switch",0,41,"E",1,"SS"
6,1,42,"N","N","f",769.94,0,9,56,4,24,"c","j",0.68737,1,"L","L","Switch",0,42,"E",1,"LL"
6,1,43,"N","N","f",1337.45,0,9,56,3,24,"c","j",0.52009,1,"S","L","Repeat",0,43,"E",0,"LS"
6,1,44,"P","P","d",603.26,1,4,56,8,24,"i","j",1.43715,1,"L","S","Switch",0,44,"E",1,"SL"
6,1,45,"P","P","d",1520.54,1,3,56,8,24,"i","j",1.48787,1,"S","L","Repeat",0,45,"E",0,"LS"
6,1,46,"P","P","d",836.5,1,2,24,7,56,"c","n",0.98733,1,"L","S","Repeat",0,46,"E",0,"SL"
6,1,47,"N","N","f",753.27,0,3,24,8,56,"c","n",0.72015,1,"L","S","Switch",0,47,"E",1,"SL"
6,1,48,"N","N","f",1003.54,0,4,56,7,24,"i","n",1.3037,1,"L","S","Repeat",0,48,"E",0,"SL"
6,1,49,"P","P","d",836.42,1,8,24,2,56,"i","n",1.53721,1,"S","S","Switch",0,49,"E",1,"SS"
6,1,50,"N","N","f",920.82,0,4,56,9,24,"i","n",1.82111,1,"S","L","Switch",0,50,"E",1,"LS"
6,1,51,"N","N","f",752.52,0,2,24,9,56,"c","n",2.42202,1,"L","L","Repeat",0,51,"E",0,"LL"
6,1,52,"N","N","f",870.01,0,8,56,3,24,"c","j",1.88835,1,"L","S","Repeat",0,52,"E",0,"SL"
6,1,53,"P","P","d",2555.59,1,2,24,8,56,"c","n",1.21991,1,"S","L","Switch",0,53,"E",1,"LS"
6,1,54,"P","P","d",1220.47,1,9,24,4,56,"i","n",0.98695,1,"S","S","Repeat",0,54,"E",0,"SS"
6,1,55,"P","P","d",917.85,1,3,24,9,56,"c","n",1.05426,1,"L","L","Repeat",0,55,"E",0,"LL"
6,1,56,"P","P","d",920.01,1,2,24,7,56,"c","n",1.70419,1,"S","L","Repeat",0,56,"E",0,"LS"
6,1,57,"P","P","d",700.92,1,7,56,4,24,"c","j",1.05287,1,"L","S","Repeat",0,57,"E",0,"SL"
6,1,58,"N","N","f",969.71,0,9,56,3,24,"c","j",1.72147,1,"L","S","Switch",0,58,"E",1,"SL"
6,1,59,"N","N","f",2254.7,0,7,56,4,24,"c","j",0.88648,1,"S","S","Repeat",0,59,"E",0,"SS"
6,1,60,"P","P","d",918.19,1,9,56,3,24,"c","n",3.75697,0,"L","L","Switch",0,60,"E",1,"LL"
6,1,61,"N","N","f",1336.45,0,2,24,8,56,"c","n",1.02059,1,"S","S","Switch",1,61,"E",1,"SS"
6,1,62,"P","P","d",786.82,1,3,24,8,56,"c","n",1.33717,1,"L","L","Switch",0,62,"E",1,"LL"
6,1,63,"N","N","f",653.15,0,4,24,7,56,"c","n",0.82009,1,"L","L","Switch",0,63,"E",1,"LL"
6,1,64,"N","N","f",1070.22,0,2,56,7,24,"i","n",0.85111,1,"S","L","Repeat",0,64,"E",0,"LS"
6,1,65,"N","N","f",1921.01,0,8,56,4,24,"c","j",0.56998,1,"L","L","Repeat",0,65,"E",0,"LL"
6,2,2,"N","N","f",801.42,0,4,56,9,24,"i","n",1.35338,1,"S","S","Repeat",0,67,"E",0,"SS"
6,2,3,"P","P","d",686.55,1,3,24,9,56,"c","n",0.67056,1,"L","L","Switch",0,68,"E",1,"LL"
6,2,4,"N","N","f",1070.11,0,2,24,8,56,"c","n",0.97058,1,"S","L","Switch",0,69,"E",1,"LS"
6,2,5,"N","N","f",536.18,0,3,24,9,56,"c","n",0.7711,1,"L","S","Repeat",0,70,"E",0,"SL"
6,2,6,"P","P","d",751.18,1,7,56,4,24,"c","j",1.55373,1,"L","L","Switch",0,71,"E",1,"LL"
6,2,7,"P","P","d",1053.37,1,2,56,9,24,"i","j",0.73687,1,"L","S","Repeat",0,72,"E",0,"SL"
6,2,8,"N","N","f",954.15,0,9,24,3,56,"i","j",1.62078,1,"L","L","Switch",0,73,"E",1,"LL"
6,2,9,"P","P","d",719.89,1,9,56,2,24,"c","j",1.30416,1,"S","L","Switch",0,74,"E",1,"LS"
6,2,10,"N","N","f",653.17,0,3,24,8,56,"c","n",0.76963,1,"L","L","Switch",0,75,"E",1,"LL"
6,2,11,"N","N","f",1036.96,0,7,56,4,24,"c","j",0.76943,1,"S","S","Repeat",0,76,"E",0,"SS"
6,2,12,"N","N","f",970.14,0,3,24,7,56,"c","n",0.70362,1,"S","L","Repeat",0,77,"E",0,"LS"
6,2,13,"P","P","d",720.01,1,8,24,2,56,"i","n",0.83728,1,"S","L","Switch",0,78,"E",1,"LS"
6,2,14,"N","N","f",1069.39,0,7,56,3,24,"c","j",0.75324,1,"L","S","Switch",0,79,"E",1,"SL"
6,2,15,"P","P","d",803.54,1,8,56,4,24,"c","j",1.52094,1,"S","S","Switch",0,80,"E",1,"SS"
6,2,16,"P","P","d",736.49,1,7,24,2,56,"i","n",0.81959,1,"L","L","Repeat",0,81,"E",0,"LL"
6,2,17,"N","N","f",819.97,0,8,24,3,56,"i","j",0.70294,1,"S","L","Switch",0,82,"E",1,"LS"
6,2,18,"P","P","d",636.71,1,7,24,4,56,"i","n",1.6713,1,"S","S","Switch",0,83,"E",1,"SS"
6,2,19,"P","P","d",870.06,1,3,24,8,56,"c","n",1.18603,1,"L","S","Repeat",0,84,"E",0,"SL"
6,2,20,"N","N","f",786.86,0,8,24,4,56,"i","j",0.63663,1,"L","S","Switch",0,85,"E",1,"SL"
6,2,21,"N","N","f",1370.23,0,9,24,2,56,"i","j",0.71985,1,"L","L","Repeat",0,86,"E",0,"LL"
6,2,22,"N","N","f",1053.02,0,7,56,4,24,"c","j",0.76988,1,"L","L","Repeat",0,87,"E",0,"LL"
6,2,23,"P","P","d",736.67,1,3,56,9,24,"i","j",0.53695,1,"L","L","Switch",0,88,"E",1,"LL"
6,2,24,"P","P","d",1070.48,1,4,56,9,24,"i","j",0.53679,1,"S","L","Repeat",0,89,"E",0,"LS"
6,2,25,"N","N","f",703.14,0,3,56,9,24,"i","n",1.67102,1,"L","L","Switch",0,90,"E",1,"LL"
6,2,26,"N","N","f",786.45,0,9,24,4,56,"i","j",1.03739,1,"L","S","Repeat",0,91,"E",0,"SL"
6,2,27,"N","N","f",920.05,0,8,56,3,24,"c","j",0.86995,1,"L","S","Repeat",0,92,"E",0,"SL"
6,2,28,"N","N","f",686.63,0,9,24,4,56,"i","j",1.20354,1,"S","L","Repeat",0,93,"E",0,"LS"
6,2,29,"P","P","d",852.73,1,2,24,8,56,"c","n",1.3369,1,"L","S","Switch",0,94,"E",1,"SL"
6,2,30,"P","P","d",920.03,1,8,56,4,24,"c","j",0.78587,1,"S","S","Repeat",0,95,"E",0,"SS"
6,2,31,"P","P","d",986.94,1,3,24,7,56,"c","n",1.33752,1,"S","S","Repeat",0,96,"E",0,"SS"
6,2,32,"N","N","f",1070.29,0,4,24,8,56,"c","n",0.97054,1,"L","S","Switch",0,97,"E",1,"SL"
6,2,33,"P","P","d",636.61,1,8,24,3,56,"i","n",0.82034,1,"L","L","Switch",0,98,"E",1,"LL"
6,2,34,"P","P","d",952.86,1,7,24,4,56,"i","n",0.65303,1,"S","S","Repeat",0,99,"E",0,"SS"
6,2,35,"P","P","d",686.55,1,8,24,2,56,"i","n",0.60348,1,"S","L","Repeat",0,100,"E",0,"LS"
6,2,36,"P","P","d",686.62,1,7,56,4,24,"c","j",0.6365,1,"S","L","Repeat",0,101,"E",0,"LS"
6,2,37,"N","N","f",803.28,0,2,24,7,56,"c","n",1.18757,1,"S","S","Switch",0,102,"E",1,"SS"
6,2,38,"N","N","f",719.42,0,3,56,8,24,"i","j",0.55328,0,"L","L","Repeat",0,103,"E",0,"LL"
6,2,39,"N","N","f",1671.12,0,8,56,4,24,"c","j",0.83647,1,"S","L","Repeat",1,104,"E",0,"LS"
6,2,40,"P","P","d",770.13,1,8,56,3,24,"c","j",1.03715,1,"L","S","Switch",0,105,"E",1,"SL"
6,2,41,"P","P","d",752.49,1,4,24,9,56,"c","n",0.56956,1,"L","L","Repeat",0,106,"E",0,"LL"
6,2,42,"N","N","f",719.67,0,2,56,7,24,"i","n",0.7705,1,"S","L","Switch",0,107,"E",1,"LS"
6,2,43,"N","N","f",736.89,0,4,56,9,24,"i","n",0.63692,1,"S","L","Repeat",0,108,"E",0,"LS"
6,2,44,"P","P","d",970.09,1,2,56,8,24,"i","j",1.13612,1,"S","L","Switch",0,109,"E",1,"LS"
6,2,45,"N","N","f",803.42,0,7,56,3,24,"c","j",1.07099,1,"S","L","Switch",0,110,"E",1,"LS"
6,2,46,"N","N","f",652.81,0,4,56,9,24,"i","n",0.98478,1,"L","S","Repeat",0,111,"E",0,"SL"
6,2,47,"N","N","f",636.58,0,2,24,7,56,"c","n",0.73615,1,"S","S","Repeat",0,112,"E",0,"SS"
6,2,48,"N","N","f",519.11,0,4,24,9,56,"c","n",1.27065,1,"L","L","Repeat",0,113,"E",0,"LL"
6,2,49,"P","P","d",1153.65,1,2,56,9,24,"i","j",1.85464,1,"S","S","Switch",0,114,"E",1,"SS"
6,2,50,"P","P","d",603.01,1,7,56,4,24,"c","j",1.38714,1,"L","S","Repeat",0,115,"E",0,"SL"
6,2,51,"N","N","f",1253.74,0,2,56,9,24,"i","n",1.37034,1,"S","S","Switch",0,116,"E",1,"SS"
6,2,52,"P","P","d",870.15,1,4,24,9,56,"c","n",1.90437,1,"S","S","Switch",0,117,"E",1,"SS"
6,2,53,"P","P","d",1687.6,1,2,56,9,24,"i","j",0.68673,1,"L","L","Repeat",0,118,"E",0,"LL"
6,2,54,"N","N","f",619.71,0,9,56,3,24,"c","j",1.15423,1,"S","S","Switch",0,119,"E",1,"SS"
6,2,55,"P","P","d",919.89,1,2,56,8,24,"i","j",1.73808,1,"L","S","Switch",0,120,"E",1,"SL"
6,2,56,"N","N","f",720.01,0,3,56,7,24,"i","n",0.83631,1,"L","S","Switch",0,121,"E",1,"SL"
6,2,57,"N","N","f",669.51,0,9,24,2,56,"i","j",0.85341,1,"S","S","Repeat",0,122,"E",0,"SS"
6,2,58,"P","P","d",769.96,1,3,24,7,56,"c","n",1.43814,1,"S","L","Switch",0,123,"E",1,"LS"
6,2,59,"P","P","d",1587.57,1,7,24,2,56,"i","n",1.8883,1,"L","S","Repeat",0,124,"E",0,"SL"
6,2,60,"P","P","d",652.79,1,4,56,8,24,"i","j",0.70439,1,"S","S","Repeat",0,125,"E",0,"SS"
6,2,61,"P","P","d",769.96,1,3,24,9,56,"c","n",0.73571,1,"S","L","Repeat",0,126,"E",0,"LS"
6,2,62,"P","P","d",669.36,1,7,56,4,24,"c","j",0.88732,1,"L","L","Repeat",0,127,"E",0,"LL"
6,2,63,"N","N","f",869.74,0,8,24,3,56,"i","j",0.75343,1,"S","S","Switch",0,128,"E",1,"SS"
6,2,64,"P","P","d",836.12,1,7,24,4,56,"i","n",1.72073,1,"L","S","Switch",0,129,"E",1,"SL"
6,2,65,"N","N","f",769.91,0,8,56,2,24,"c","j",0.56994,1,"L","L","Switch",0,130,"E",1,"LL"
6,3,2,"P","P","d",752.89,1,3,56,9,24,"i","j",1.17082,1,"S","S","Switch",0,132,"E",1,"SS"
6,3,3,"P","P","d",819.96,1,2,56,7,24,"i","j",1.38719,1,"S","L","Repeat",0,133,"E",0,"LS"
6,3,4,"N","N","f",819.31,0,4,24,8,56,"c","n",0.80351,1,"L","S","Switch",0,134,"E",1,"SL"
6,3,5,"N","N","f",502.56,0,2,56,9,24,"i","n",0.85415,1,"S","L","Repeat",0,135,"E",0,"LS"
6,3,6,"P","P","d",1370.71,1,4,24,9,56,"c","n",1.72039,1,"S","S","Switch",0,136,"E",1,"SS"
6,3,7,"N","N","f",670.16,0,9,56,2,24,"c","j",1.38717,1,"S","S","Switch",0,137,"E",1,"SS"
6,3,8,"N","N","f",1203.65,0,9,24,4,56,"i","j",0.55141,1,"S","L","Repeat",0,138,"E",0,"LS"
6,3,9,"N","N","f",953.46,0,2,56,9,24,"i","n",0.80351,1,"L","S","Repeat",0,139,"E",0,"SL"
6,3,10,"N","N","f",1520.72,0,4,24,8,56,"c","n",2.05521,1,"L","L","Repeat",0,140,"E",0,"LL"
6,3,11,"P","P","d",653.06,1,9,24,3,56,"i","n",0.53588,1,"L","L","Switch",0,141,"E",1,"LL"
6,3,12,"N","N","f",819.92,0,2,56,9,24,"i","n",0.88657,1,"S","S","Switch",0,142,"E",1,"SS"
6,3,13,"N","N","f",1103.72,0,3,56,7,24,"i","n",1.13741,1,"S","S","Repeat",0,143,"E",0,"SS"
6,3,14,"P","P","d",603.21,1,9,56,4,24,"c","j",0.53692,1,"L","L","Switch",0,144,"E",1,"LL"
6,3,15,"N","N","f",851.43,0,2,24,8,56,"c","n",0.98698,1,"L","L","Switch",0,145,"E",1,"LL"
6,3,16,"P","P","d",720.19,1,7,56,3,24,"c","j",1.45397,1,"S","L","Switch",0,146,"E",1,"LS"
6,3,17,"P","P","d",1470.58,1,8,56,2,24,"c","j",1.3211,1,"L","L","Repeat",0,147,"E",0,"LL"
6,3,18,"N","N","f",653.23,0,8,56,3,24,"c","j",3.03855,1,"L","L","Switch",0,148,"E",1,"LL"
6,3,19,"P","P","d",819.42,1,2,24,8,56,"c","n",1.03709,1,"L","S","Switch",0,149,"E",1,"SL"
6,3,20,"N","N","f",636.49,0,9,24,4,56,"i","j",0.53706,1,"S","L","Switch",0,150,"E",1,"LS"
6,3,21,"P","P","d",619.76,1,3,24,7,56,"c","n",0.72045,1,"S","L","Switch",0,151,"E",1,"LS"
6,3,22,"P","P","d",1119.65,1,7,24,2,56,"i","n",1.15367,1,"S","S","Repeat",0,152,"E",0,"SS"
6,3,23,"N","N","f",736.66,0,4,56,7,24,"i","n",1.88742,1,"L","S","Switch",0,153,"E",1,"SL"
6,3,24,"P","P","d",703.39,1,2,56,8,24,"i","j",1.85389,1,"L","S","Switch",0,154,"E",1,"SL"
6,3,25,"N","N","f",870.02,0,9,24,4,56,"i","j",1.95441,1,"L","L","Switch",0,155,"E",1,"LL"
6,3,26,"N","N","f",953.99,0,8,56,3,24,"c","j",0.58629,1,"S","L","Repeat",0,156,"E",0,"LS"
6,3,27,"N","N","f",919.74,0,2,24,7,56,"c","n",0.68421,1,"S","L","Repeat",0,157,"E",0,"LS"
6,3,28,"N","N","f",602.53,0,7,24,3,56,"i","j",1.37096,1,"L","S","Repeat",0,158,"E",0,"SL"
6,3,29,"N","N","f",569.52,0,2,24,8,56,"c","n",0.88732,1,"L","S","Repeat",0,159,"E",0,"SL"
6,3,30,"N","N","f",519.31,0,8,56,3,24,"c","j",0.63618,1,"L","S","Repeat",0,160,"E",0,"SL"
6,3,31,"N","N","f",1070.2,0,9,56,4,24,"c","j",0.68674,1,"S","S","Repeat",0,161,"E",0,"SS"
6,3,32,"P","P","d",870.58,1,7,56,2,24,"c","j",1.10302,1,"S","S","Switch",0,162,"E",1,"SS"
6,3,33,"N","N","f",1203.8,0,3,56,8,24,"i","n",1.33765,1,"S","L","Switch",0,163,"E",1,"LS"
6,3,34,"P","P","d",1137.3,1,4,24,8,56,"c","n",0.63658,1,"L","L","Switch",0,164,"E",1,"LL"
6,3,35,"P","P","d",1069.99,1,9,56,3,24,"c","j",0.51979,1,"S","L","Repeat",0,165,"E",0,"LS"
6,3,36,"N","N","f",670.02,0,2,56,7,24,"i","n",0.66949,1,"L","L","Switch",0,166,"E",1,"LL"
6,3,37,"P","P","d",586.36,1,9,56,4,24,"c","j",1.08676,1,"L","S","Switch",0,167,"E",1,"SL"
6,3,38,"P","P","d",703.04,1,9,24,2,56,"i","n",1.17061,1,"S","L","Repeat",0,168,"E",0,"LS"
6,3,39,"P","P","d",602.83,1,4,56,8,24,"i","j",0.68667,1,"L","S","Repeat",0,169,"E",0,"SL"
6,3,40,"P","P","d",502.83,1,7,24,3,56,"i","n",0.83742,1,"L","L","Repeat",0,170,"E",0,"LL"
6,3,41,"P","P","d",585.54,1,4,56,8,24,"i","j",0.43629,1,"L","L","Repeat",0,171,"E",0,"LL"
6,3,42,"N","N","f",736.39,0,8,24,3,56,"i","j",0.75335,1,"L","S","Switch",0,172,"E",1,"SL"
6,3,43,"N","N","f",752.51,0,8,24,4,56,"i","j",1.37038,1,"S","S","Repeat",0,173,"E",0,"SS"
6,3,44,"P","P","f",486.41,1,2,56,7,24,"i","j",2.6552,1,"S","L","Switch",0,174,"E",1,"LS"
6,3,45,"P","P","d",953.33,1,3,24,7,56,"c","n",1.63792,1,"S","L","Repeat",0,175,"E",0,"LS"
6,3,46,"N","N","f",1303.51,0,9,56,2,24,"c","j",2.02059,1,"L","S","Switch",0,176,"E",1,"SL"
6,3,47,"N","N","f",769.8,0,4,24,9,56,"c","n",2.05534,1,"S","S","Repeat",0,177,"E",0,"SS"
6,3,48,"N","N","f",919.55,0,7,56,3,24,"c","j",0.58668,1,"L","L","Repeat",0,178,"E",0,"LL"
6,3,49,"P","P","d",770.45,1,8,24,4,56,"i","n",0.53648,1,"S","L","Switch",0,179,"E",1,"LS"
6,3,50,"N","N","f",785.72,0,3,24,7,56,"c","n",1.13715,1,"S","L","Switch",0,180,"E",1,"LS"
6,3,51,"P","P","d",870.13,1,2,56,9,24,"i","j",1.05422,1,"L","L","Switch",0,181,"E",1,"LL"
6,3,52,"N","N","f",920.61,0,3,24,9,56,"c","n",0.86968,1,"S","S","Switch",0,182,"E",1,"SS"
6,3,53,"N","N","f",2171.39,0,9,24,2,56,"i","j",1.21869,1,"L","L","Repeat",0,183,"E",0,"LL"
6,3,54,"P","P","d",736.63,1,9,24,4,56,"i","n",2.53832,1,"S","S","Switch",0,184,"E",1,"SS"
6,3,55,"P","P","d",2087.89,1,2,24,7,56,"c","n",2.78963,1,"L","L","Repeat",0,185,"E",0,"LL"
6,3,56,"P","P","d",669.57,1,7,24,3,56,"i","n",0.88705,1,"L","S","Repeat",0,186,"E",0,"SL"
6,3,57,"P","P","d",1020.27,1,2,24,7,56,"c","n",0.7364,1,"S","S","Repeat",0,187,"E",0,"SS"
6,3,58,"P","P","d",602.88,1,7,56,4,24,"c","j",0.95327,1,"S","S","Repeat",0,188,"E",0,"SS"
6,3,59,"P","P","d",636.4,1,3,24,7,56,"c","n",0.53707,1,"L","S","Repeat",0,189,"E",0,"SL"
6,3,60,"P","P","d",853.24,1,2,56,8,24,"i","j",1.03716,1,"S","S","Repeat",0,190,"E",0,"SS"
6,3,61,"N","N","f",719.78,0,8,56,4,24,"c","j",0.66998,1,"S","L","Switch",0,191,"E",1,"LS"
6,3,62,"P","P","d",2421.66,1,7,24,2,56,"i","n",0.75271,1,"L","S","Switch",0,192,"E",1,"SL"
6,3,63,"P","P","d",836.71,1,7,56,3,24,"c","j",0.68571,1,"L","S","Repeat",0,193,"E",0,"SL"
6,3,64,"N","N","f",753.55,0,9,24,4,56,"i","j",1.48769,1,"S","S","Switch",0,194,"E",1,"SS"
6,3,65,"N","N","f",786.34,0,2,56,7,24,"i","n",0.90318,1,"L","L","Repeat",0,195,"E",0,"LL"
6,4,2,"N","N","f",803.18,0,8,56,3,24,"c","j",0.65303,1,"S","S","Switch",0,197,"E",1,"SS"
6,4,3,"P","P","d",669.86,1,2,24,7,56,"c","n",1.38786,1,"L","S","Switch",0,198,"E",1,"SL"
6,4,4,"P","P","d",769.84,1,8,24,3,56,"i","n",0.60317,1,"S","L","Repeat",0,199,"E",0,"LS"
6,4,5,"N","N","f",619.35,0,2,24,8,56,"c","n",0.95396,1,"S","L","Switch",0,200,"E",1,"LS"
6,4,6,"N","N","f",1370.21,0,3,24,8,56,"c","n",0.73493,1,"L","S","Repeat",0,201,"E",0,"SL"
6,4,7,"N","N","f",836.54,0,2,56,8,24,"i","n",1.42027,1,"L","S","Repeat",0,202,"E",0,"SL"
6,4,8,"N","N","f",819.94,0,7,24,3,56,"i","j",0.85308,1,"S","L","Repeat",0,203,"E",0,"LS"
6,4,9,"N","N","f",1503.99,0,7,56,4,24,"c","j",0.90276,1,"S","L","Repeat",0,204,"E",0,"LS"
6,4,10,"P","P","d",669.94,1,9,24,3,56,"i","n",1.46841,1,"S","L","Switch",0,205,"E",1,"LS"
6,4,11,"N","N","f",886.86,0,8,24,4,56,"i","j",0.87002,1,"L","L","Switch",0,206,"E",1,"LL"
6,4,12,"N","N","f",1270.22,0,8,56,3,24,"c","j",1.00408,1,"L","S","Repeat",0,207,"E",0,"SL"
6,4,13,"P","P","d",669.85,1,4,56,7,24,"i","j",0.51959,1,"S","L","Switch",0,208,"E",1,"LS"
6,4,14,"P","P","d",703.19,1,3,24,7,56,"c","n",0.58689,1,"S","L","Repeat",0,209,"E",0,"LS"
6,4,15,"N","N","f",753.32,0,9,24,4,56,"i","j",1.588,1,"S","L","Switch",0,210,"E",1,"LS"
6,4,16,"P","P","d",853.21,1,3,56,7,24,"i","j",1.13679,1,"L","S","Switch",0,211,"E",1,"SL"
6,4,17,"P","P","d",920.18,1,8,56,4,24,"c","j",3.73969,1,"S","S","Repeat",0,212,"E",0,"SS"
6,4,18,"P","P","d",687,1,3,56,8,24,"i","j",0.91993,1,"L","L","Repeat",0,213,"E",0,"LL"
6,4,19,"P","P","d",1036.98,1,8,56,2,24,"c","j",1.00357,1,"S","L","Repeat",0,214,"E",0,"LS"
6,4,20,"P","P","d",1153.24,1,4,56,7,24,"i","j",0.55304,1,"S","L","Repeat",0,215,"E",0,"LS"
6,4,21,"P","P","d",552.74,1,8,24,3,56,"i","n",0.70318,1,"L","L","Repeat",0,216,"E",0,"LL"
6,4,22,"P","P","d",553.01,1,4,24,7,56,"c","n",0.85377,1,"L","L","Repeat",0,217,"E",0,"LL"
6,4,23,"N","N","f",586.7,0,3,56,8,24,"i","n",0.78412,1,"L","S","Switch",0,218,"E",1,"SL"
6,4,24,"N","N","f",536.28,0,4,56,9,24,"i","n",1.1208,1,"L","L","Repeat",0,219,"E",0,"LL"
6,4,25,"P","P","d",1070.38,1,7,56,3,24,"c","j",0.46967,1,"L","L","Switch",0,220,"E",1,"LL"
6,4,26,"N","N","f",836.51,0,2,24,8,56,"c","n",0.85398,1,"L","L","Switch",0,221,"E",1,"LL"
6,4,27,"P","P","d",669.79,1,3,56,7,24,"i","j",1.08732,1,"L","L","Switch",0,222,"E",1,"LL"
6,4,28,"N","N","f",619.93,0,4,56,9,24,"i","n",0.83705,1,"L","L","Switch",0,223,"E",1,"LL"
6,4,29,"N","N","f",619.75,0,9,24,2,56,"i","j",0.70325,1,"L","L","Repeat",0,224,"E",0,"LL"
6,4,30,"P","P","d",652.34,1,8,24,4,56,"i","n",1.27092,1,"L","L","Switch",0,225,"E",1,"LL"
6,4,31,"N","N","f",769.92,0,9,24,2,56,"i","j",2.23792,1,"S","S","Switch",0,226,"E",1,"SS"
6,4,32,"N","N","f",1203.38,0,4,24,8,56,"c","n",1.1546,1,"S","L","Repeat",0,227,"E",0,"LS"
6,4,33,"P","P","d",820.08,1,7,56,3,24,"c","j",0.56906,1,"L","S","Switch",0,228,"E",1,"SL"
6,4,34,"N","N","f",686.87,0,2,56,8,24,"i","n",1.02074,1,"S","S","Switch",0,229,"E",1,"SS"
6,4,35,"N","N","f",651.16,0,8,24,4,56,"i","j",0.73673,1,"L","S","Repeat",0,230,"E",0,"SL"
6,4,36,"N","N","f",802.56,0,2,24,8,56,"c","n",0.71984,1,"L","L","Repeat",0,231,"E",0,"LL"
6,4,37,"N","N","f",1036.76,0,8,24,4,56,"i","j",0.65362,1,"S","S","Repeat",0,232,"E",0,"SS"
6,4,38,"N","N","f",986.95,0,3,24,9,56,"c","n",0.75101,1,"S","S","Repeat",0,233,"E",0,"SS"
6,4,39,"N","N","f",769.89,0,2,56,9,24,"i","n",0.77025,1,"S","L","Repeat",0,234,"E",0,"LS"
6,4,40,"P","P","d",703.4,1,4,24,9,56,"c","n",1.087,1,"S","S","Switch",0,235,"E",1,"SS"
6,4,41,"N","N","f",1270.54,0,7,56,2,24,"c","j",0.48617,1,"L","L","Switch",0,236,"E",1,"LL"
6,4,42,"P","P","d",719.77,1,9,24,3,56,"i","n",1.40425,1,"L","S","Switch",0,237,"E",1,"SL"
6,4,43,"P","P","d",786.19,1,9,24,2,56,"i","n",1.08615,1,"L","S","Repeat",0,238,"E",0,"SL"
6,4,44,"P","P","d",719.09,1,3,24,7,56,"c","n",0.7177,1,"L","S","Repeat",0,239,"E",0,"SL"
6,4,45,"N","N","f",1354.14,0,7,56,4,24,"c","j",1.00348,1,"S","L","Switch",0,240,"E",1,"LS"
6,4,46,"N","N","f",736.4,0,3,56,9,24,"i","n",0.76821,1,"S","S","Repeat",0,241,"E",0,"SS"
6,4,47,"P","P","d",720.04,1,4,24,7,56,"c","n",2.07186,1,"L","L","Switch",0,242,"E",1,"LL"
6,4,48,"N","N","f",702.97,0,8,24,2,56,"i","j",0.93704,1,"L","S","Switch",0,243,"E",1,"SL"
6,4,49,"P","P","d",703.22,1,4,56,7,24,"i","j",0.75362,1,"S","S","Switch",0,244,"E",1,"SS"
6,4,50,"P","P","d",703.21,1,3,24,9,56,"c","n",1.17078,1,"S","S","Repeat",0,245,"E",0,"SS"
6,4,51,"P","P","d",1036.78,1,7,56,4,24,"c","j",0.58627,1,"L","L","Repeat",0,246,"E",0,"LL"
6,4,52,"N","N","f",620.43,0,2,56,7,24,"i","n",1.67071,1,"S","L","Switch",0,247,"E",1,"LS"
6,4,53,"P","P","d",1020.33,1,7,24,3,56,"i","n",2.42161,1,"S","S","Switch",0,248,"E",1,"SS"
6,4,54,"P","P","d",619.38,1,2,56,9,24,"i","j",0.55277,1,"L","S","Repeat",0,249,"E",0,"SL"
6,4,55,"P","P","d",1054.53,1,8,24,4,56,"i","n",0.65344,1,"S","S","Repeat",0,250,"E",0,"SS"
6,4,56,"N","N","f",603,0,9,56,2,24,"c","j",0.75118,1,"L","S","Switch",0,251,"E",1,"SL"
6,4,57,"P","P","d",736.11,1,7,56,4,24,"c","j",0.53634,1,"S","S","Switch",0,252,"E",1,"SS"
6,4,58,"P","P","d",735.73,1,9,56,3,24,"c","j",0.41952,1,"L","S","Repeat",0,253,"E",0,"SL"
6,4,59,"N","N","f",619.73,0,2,24,7,56,"c","n",0.73631,1,"S","S","Switch",0,254,"E",1,"SS"
6,4,60,"N","N","f",987.11,0,7,56,3,24,"c","j",0.60283,1,"L","L","Repeat",0,255,"E",0,"LL"
6,4,61,"N","N","f",670.1,0,8,56,2,24,"c","j",0.58679,1,"S","S","Repeat",0,256,"E",0,"SS"
6,4,62,"P","P","d",770.26,1,3,24,8,56,"c","n",0.50285,1,"S","L","Switch",0,257,"E",1,"LS"
6,4,63,"N","N","f",834.84,0,4,24,9,56,"c","n",1.12051,1,"L","S","Switch",0,258,"E",1,"SL"
6,4,64,"P","P","d",653.05,1,9,56,3,24,"c","j",1.07005,1,"S","L","Switch",0,259,"E",1,"LS"
6,4,65,"P","P","d",686.48,1,4,56,9,24,"i","j",0.45301,1,"S","S","Repeat",0,260,"E",0,"SS"
6,5,2,"P","P","d",686.59,1,8,24,4,56,"i","n",0.60367,1,"S","L","Repeat",0,262,"E",0,"LS"
6,5,3,"P","P","d",553.04,1,9,56,3,24,"c","j",0.42006,1,"L","L","Repeat",0,263,"E",0,"LL"
6,5,4,"N","N","f",586.29,0,4,56,8,24,"i","n",0.66956,1,"L","S","Switch",0,264,"E",1,"SL"
6,5,5,"P","P","d",803.23,1,7,24,2,56,"i","n",0.62029,1,"S","L","Switch",0,265,"E",1,"LS"
6,5,6,"N","N","f",619.71,0,3,24,9,56,"c","n",0.85347,1,"S","L","Switch",0,266,"E",1,"LS"
6,5,7,"P","P","d",803.37,1,2,56,8,24,"i","j",1.08759,1,"L","S","Switch",0,267,"E",1,"SL"
6,5,8,"N","N","f",803.18,0,9,24,3,56,"i","j",1.15316,1,"L","S","Switch",0,268,"E",1,"SL"
6,5,9,"N","N","f",652.98,0,4,24,8,56,"c","n",0.73667,1,"S","L","Repeat",0,269,"E",0,"LS"
6,5,10,"N","N","f",601.55,0,9,24,2,56,"i","j",0.53603,1,"S","L","Repeat",0,270,"E",0,"LS"
6,5,11,"P","P","d",1704.42,1,3,24,7,56,"c","n",0.5377,1,"S","L","Switch",0,271,"E",1,"LS"
6,5,12,"N","N","f",652.93,0,9,56,2,24,"c","j",0.81999,1,"S","L","Switch",0,272,"E",1,"LS"
6,5,13,"N","N","f",670.47,0,8,56,3,24,"c","j",0.58588,1,"S","S","Repeat",0,273,"E",0,"SS"
6,5,14,"P","P","d",653.05,1,2,56,8,24,"i","j",0.57021,1,"S","L","Switch",0,274,"E",1,"LS"
6,5,15,"P","P","d",1170.26,1,3,24,9,56,"c","n",1.32038,1,"S","L","Repeat",0,275,"E",0,"LS"
6,5,16,"P","P","d",519.26,1,4,56,7,24,"i","j",0.40263,1,"L","S","Repeat",0,276,"E",0,"SL"
6,5,17,"N","N","f",686.23,0,7,56,3,24,"c","j",0.61987,1,"S","S","Switch",0,277,"E",1,"SS"
6,5,18,"P","P","d",719.78,1,9,56,2,24,"c","j",0.68629,1,"S","L","Switch",0,278,"E",1,"LS"
6,5,19,"P","P","d",1720.88,1,4,24,7,56,"c","n",0.55323,1,"L","L","Repeat",0,279,"E",0,"LL"
6,5,20,"P","P","d",586.23,1,3,56,8,24,"i","j",0.61968,1,"S","S","Repeat",0,280,"E",0,"SS"
6,5,21,"N","N","f",636.37,0,7,24,2,56,"i","j",2.30539,1,"S","L","Switch",0,281,"E",1,"LS"
6,5,22,"N","N","f",552.42,0,3,56,9,24,"i","n",0.63667,1,"L","L","Repeat",0,282,"E",0,"LL"
6,5,23,"P","P","d",870.03,1,9,24,4,56,"i","n",2.52132,1,"L","L","Switch",0,283,"E",1,"LL"
6,5,24,"N","N","f",619.19,0,7,56,2,24,"c","j",0.98737,1,"L","S","Switch",0,284,"E",1,"SL"
6,5,25,"P","P","d",620.06,1,4,56,7,24,"i","j",1.28683,1,"L","L","Switch",0,285,"E",1,"LL"
6,5,26,"P","P","d",936.22,1,9,56,2,24,"c","j",0.93703,1,"S","S","Repeat",0,286,"E",0,"SS"
6,5,27,"P","P","d",636.43,1,9,56,4,24,"c","j",0.48629,1,"L","S","Repeat",0,287,"E",0,"SL"
6,5,28,"P","P","d",652.24,1,3,56,9,24,"i","j",0.87095,1,"L","L","Repeat",0,288,"E",0,"LL"
6,5,29,"P","P","d",1119.91,1,9,56,2,24,"c","j",0.53685,1,"S","L","Repeat",0,289,"E",0,"LS"
6,5,30,"P","P","d",1086.89,1,3,24,9,56,"c","n",0.87025,1,"S","S","Repeat",0,290,"E",0,"SS"
6,5,31,"P","P","d",769.77,1,7,24,4,56,"i","n",0.6028,1,"L","L","Repeat",0,291,"E",0,"LL"
6,5,32,"N","N","f",1103.74,0,2,56,8,24,"i","n",0.82092,1,"S","S","Switch",0,292,"E",1,"SS"
6,5,33,"N","N","f",586.53,0,4,24,7,56,"c","n",0.60301,1,"S","S","Repeat",0,293,"E",0,"SS"
6,5,34,"N","N","f",719.74,0,3,24,7,56,"c","n",1.23709,1,"L","L","Repeat",0,294,"E",0,"LL"
6,5,35,"N","N","f",519.46,0,4,24,7,56,"c","n",0.70306,1,"L","S","Repeat",0,295,"E",0,"SL"
6,5,36,"N","N","f",720.08,0,8,56,2,24,"c","j",0.85403,1,"S","L","Repeat",0,296,"E",0,"LS"
6,5,37,"P","P","d",919.96,1,9,24,3,56,"i","n",1.37155,1,"S","S","Switch",0,297,"E",1,"SS"
6,5,38,"P","P","d",652.97,1,2,56,8,24,"i","j",0.60279,1,"S","L","Repeat",0,298,"E",0,"LS"
6,5,39,"N","N","f",870.02,0,9,24,3,56,"i","j",0.78617,1,"S","S","Switch",0,299,"E",1,"SS"
6,5,40,"N","N","f",635.86,0,8,24,2,56,"i","j",0.62029,1,"L","L","Repeat",0,300,"E",0,"LL"
6,5,41,"P","P","d",586.54,1,3,24,7,56,"c","n",0.83646,1,"L","S","Switch",0,301,"E",1,"SL"
6,5,42,"N","N","f",469.89,0,9,56,4,24,"c","j",0.55214,1,"L","L","Switch",0,302,"E",1,"LL"
6,5,43,"N","N","f",719.78,0,3,56,7,24,"i","n",0.98743,1,"S","L","Repeat",0,303,"E",0,"LS"
6,5,44,"P","P","d",519.88,1,7,56,4,24,"c","j",0.73698,1,"L","L","Switch",0,304,"E",1,"LL"
6,5,45,"N","N","f",569.58,0,8,24,3,56,"i","j",0.51967,1,"L","L","Switch",0,305,"E",1,"LL"
6,5,46,"N","N","f",953.32,0,2,56,8,24,"i","n",0.66998,1,"L","S","Repeat",0,306,"E",0,"SL"
6,5,47,"N","N","f",602.67,0,8,56,3,24,"c","j",1.4204,1,"L","L","Repeat",0,307,"E",0,"LL"
6,5,48,"N","N","f",1103.74,0,9,24,2,56,"i","j",0.57047,1,"L","S","Repeat",0,308,"E",0,"SL"
6,5,49,"P","P","d",803.24,1,3,56,8,24,"i","j",0.48688,1,"S","S","Switch",0,309,"E",1,"SS"
6,5,50,"P","P","d",603.02,1,7,24,4,56,"i","n",0.73714,1,"S","S","Repeat",0,310,"E",0,"SS"
6,5,51,"N","N","f",703.25,0,3,24,9,56,"c","n",1.0543,1,"L","S","Switch",0,311,"E",1,"SL"
6,5,52,"P","P","d",1637.63,1,2,24,9,56,"c","n",2.05449,1,"S","S","Switch",0,312,"E",1,"SS"
6,5,53,"P","P","d",836.25,1,3,24,8,56,"c","n",3.55689,1,"L","S","Repeat",0,313,"E",0,"SL"
6,5,54,"P","P","d",1270.01,1,9,24,4,56,"i","n",1.48781,1,"L","S","Repeat",0,314,"E",0,"SL"
6,5,55,"N","N","f",786.48,0,3,56,7,24,"i","j",1.71956,0,"L","L","Switch",0,315,"E",1,"LL"
6,5,56,"P","P","d",836.95,1,9,56,2,24,"c","j",1.27115,1,"S","S","Switch",1,316,"E",1,"SS"
6,5,57,"N","N","f",719.82,0,3,56,8,24,"i","n",1.25466,1,"S","L","Switch",0,317,"E",1,"LS"
6,5,58,"N","N","f",803.29,0,4,56,8,24,"i","n",0.73647,1,"S","S","Repeat",0,318,"E",0,"SS"
6,5,59,"N","N","f",553.16,0,9,24,2,56,"i","j",0.68717,1,"S","S","Repeat",0,319,"E",0,"SS"
6,5,60,"N","N","f",936.52,0,8,56,3,24,"c","j",0.93659,1,"L","S","Repeat",0,320,"E",0,"SL"
6,5,61,"P","P","d",1119.27,1,4,24,7,56,"c","n",0.6678,1,"L","L","Switch",0,321,"E",1,"LL"
6,5,62,"N","N","f",953.53,0,3,24,7,56,"c","n",1.35462,1,"S","S","Switch",0,322,"E",1,"SS"
6,5,63,"P","P","d",836.98,1,9,56,2,24,"c","j",1.27037,1,"L","S","Switch",0,323,"E",1,"SL"
6,5,64,"N","N","f",652.5,0,3,24,8,56,"c","n",0.66959,1,"L","L","Switch",0,324,"E",1,"LL"
6,5,65,"P","P","d",636.47,1,8,24,2,56,"i","n",1.80474,1,"L","S","Switch",0,325,"E",1,"SL"
6,6,2,"P","P","d",686.72,1,7,24,2,56,"i","n",0.71977,1,"L","S","Switch",0,327,"E",1,"SL"
6,6,3,"P","P","d",703.12,1,8,24,4,56,"i","n",0.73644,1,"S","L","Repeat",0,328,"E",0,"LS"
6,6,4,"P","P","d",636.33,1,2,56,7,24,"i","j",0.37002,1,"L","L","Repeat",0,329,"E",0,"LL"
6,6,5,"N","N","f",687.28,0,3,56,7,24,"i","n",0.60352,1,"L","S","Switch",0,330,"E",1,"SL"
6,6,6,"N","N","f",519.77,0,9,56,4,24,"c","j",0.48659,1,"L","S","Repeat",0,331,"E",0,"SL"
6,6,7,"P","P","d",719.63,1,2,56,7,24,"i","j",0.41951,1,"L","L","Switch",0,332,"E",1,"LL"
6,6,8,"N","N","f",886.8,0,7,56,3,24,"c","j",0.78716,1,"S","L","Switch",0,333,"E",1,"LS"
6,6,9,"P","P","d",753.38,1,9,24,2,56,"i","n",0.45326,1,"L","L","Switch",0,334,"E",1,"LL"
6,6,10,"P","P","d",869.57,1,4,56,9,24,"i","j",0.57009,1,"S","L","Repeat",0,335,"E",0,"LS"
6,6,11,"P","P","d",569.79,1,9,56,3,24,"c","j",0.45313,1,"S","S","Repeat",0,336,"E",0,"SS"
6,6,12,"P","P","d",603.24,1,4,24,7,56,"c","n",0.67032,1,"S","L","Repeat",0,337,"E",0,"LS"
6,6,13,"N","N","f",636.02,0,3,24,8,56,"c","n",0.76769,1,"S","S","Switch",0,338,"E",1,"SS"
6,6,14,"P","P","d",802.97,1,4,56,8,24,"i","j",0.58581,1,"S","S","Switch",0,339,"E",1,"SS"
6,6,15,"P","P","d",686.83,1,8,24,3,56,"i","n",0.65163,1,"L","S","Repeat",0,340,"E",0,"SL"
6,6,16,"N","N","f",953.44,0,4,56,7,24,"i","n",2.17191,1,"L","L","Switch",0,341,"E",1,"LL"
6,6,17,"N","N","f",602.37,0,3,56,9,24,"i","n",0.65319,1,"S","S","Repeat",0,342,"E",0,"SS"
6,6,18,"N","N","f",769.81,0,8,24,4,56,"i","j",0.83724,1,"L","L","Repeat",0,343,"E",0,"LL"
6,6,19,"N","N","f",569.7,0,9,56,3,24,"c","j",0.92023,1,"S","L","Repeat",0,344,"E",0,"LS"
6,6,20,"P","P","d",720.02,1,9,56,2,24,"c","j",2.77183,1,"S","S","Switch",0,345,"E",1,"SS"
6,6,21,"N","N","f",669.37,0,4,56,7,24,"i","n",0.66976,1,"S","S","Switch",0,346,"E",1,"SS"
6,6,22,"N","N","f",517.8,0,3,24,9,56,"c","n",0.58655,1,"S","L","Repeat",0,347,"E",0,"LS"
6,6,23,"P","P","d",619.14,1,2,24,8,56,"c","n",0.52047,1,"S","S","Switch",0,348,"E",1,"SS"
6,6,24,"P","P","d",619.14,1,7,56,3,24,"c","j",0.78706,1,"L","L","Repeat",0,349,"E",0,"LL"
6,6,25,"P","P","d",2655.07,1,8,24,2,56,"i","n",1.1541,1,"S","S","Repeat",0,350,"E",0,"SS"
6,6,26,"P","P","d",702.67,1,9,56,3,24,"c","j",0.68474,1,"L","S","Repeat",0,351,"E",0,"SL"
6,6,27,"N","N","f",635.96,0,2,56,7,24,"i","n",0.66979,1,"S","L","Switch",0,352,"E",1,"LS"
6,6,28,"N","N","f",1369.96,0,8,56,3,24,"c","j",0.48556,1,"L","L","Repeat",0,353,"E",0,"LL"
